relative_id,timestamp,CHS_IMU9_Acc_X,CHS_IMU9_Acc_Y,CHS_IMU9_Acc_Z,CHS_IMU9_Gyro_X,CHS_IMU9_Gyro_Y,CHS_IMU9_Gyro_Z,CHS_IMU9_Magn_X,CHS_IMU9_Magn_Y,CHS_IMU9_Magn_Z,RU_IMU9_Acc_X,RU_IMU9_Acc_Y,RU_IMU9_Acc_Z,RU_IMU9_Gyro_X,RU_IMU9_Gyro_Y,RU_IMU9_Gyro_Z,RU_IMU9_Magn_X,RU_IMU9_Magn_Y,RU_IMU9_Magn_Z,LU_IMU9_Acc_X,LU_IMU9_Acc_Y,LU_IMU9_Acc_Z,LU_IMU9_Gyro_X,LU_IMU9_Gyro_Y,LU_IMU9_Gyro_Z,LU_IMU9_Magn_X,LU_IMU9_Magn_Y,LU_IMU9_Magn_Z,RF_IMU9_Acc_X,RF_IMU9_Acc_Y,RF_IMU9_Acc_Z,RF_IMU9_Gyro_X,RF_IMU9_Gyro_Y,RF_IMU9_Gyro_Z,RF_IMU9_Magn_X,RF_IMU9_Magn_Y,RF_IMU9_Magn_Z,LF_IMU9_Acc_X,LF_IMU9_Acc_Y,LF_IMU9_Acc_Z,LF_IMU9_Gyro_X,LF_IMU9_Gyro_Y,LF_IMU9_Gyro_Z,LF_IMU9_Magn_X,LF_IMU9_Magn_Y,LF_IMU9_Magn_Z,WAS_IMU9_Acc_X,WAS_IMU9_Acc_Y,WAS_IMU9_Acc_Z,WAS_IMU9_Gyro_X,WAS_IMU9_Gyro_Y,WAS_IMU9_Gyro_Z,WAS_IMU9_Magn_X,WAS_IMU9_Magn_Y,WAS_IMU9_Magn_Z,RT_IMU9_Acc_X,RT_IMU9_Acc_Y,RT_IMU9_Acc_Z,RT_IMU9_Gyro_X,RT_IMU9_Gyro_Y,RT_IMU9_Gyro_Z,RT_IMU9_Magn_X,RT_IMU9_Magn_Y,RT_IMU9_Magn_Z,LT_IMU9_Acc_X,LT_IMU9_Acc_Y,LT_IMU9_Acc_Z,LT_IMU9_Gyro_X,LT_IMU9_Gyro_Y,LT_IMU9_Gyro_Z,LT_IMU9_Magn_X,LT_IMU9_Magn_Y,LT_IMU9_Magn_Z,RC_IMU9_Acc_X,RC_IMU9_Acc_Y,RC_IMU9_Acc_Z,RC_IMU9_Gyro_X,RC_IMU9_Gyro_Y,RC_IMU9_Gyro_Z,RC_IMU9_Magn_X,RC_IMU9_Magn_Y,RC_IMU9_Magn_Z,LC_IMU9_Acc_X,LC_IMU9_Acc_Y,LC_IMU9_Acc_Z,LC_IMU9_Gyro_X,LC_IMU9_Gyro_Y,LC_IMU9_Gyro_Z,LC_IMU9_Magn_X,LC_IMU9_Magn_Y,LC_IMU9_Magn_Z
0,0.0,9.349091529846191,-3.182567834854126,1.4812101125717163,1.2599999904632568,-2.380000114440918,-0.1400000005960464,167.95997619628906,-227.8549652099609,171.1458282470703,9.865960121154783,0.6508709788322449,-0.5168681740760803,-0.9800000190734864,-0.6299999952316284,0.9800000190734864,156.85643005371094,-80.90235137939453,-171.41893005371094,9.813316345214844,-0.2153617292642593,1.7085363864898682,-2.7300000190734863,-1.680000066757202,1.9600000381469729,123.9858856201172,-210.759506225586,112.9292449951172,9.140909194946287,-3.366821765899658,-1.56256902217865,-0.6299999952316284,-1.820000052452088,-1.399999976158142,55.95000076293945,22.200000762939453,-19.5,9.294054985046388,3.077279806137085,-0.4929390549659729,-1.4700000286102295,-0.1400000005960464,0.699999988079071,61.75718688964844,-131.26307678222656,111.5971450805664,9.820494651794434,0.1603248417377472,0.0861446931958198,-1.399999976158142,-1.3300000429153442,-0.2800000011920929,117.02263641357422,-3.6840548515319824,51.55327224731445,9.56684684753418,-0.8111958503723145,-1.3854937553405762,-1.6100000143051147,-0.9100000262260436,-0.4900000095367431,56.31272506713867,-52.057159423828125,-190.3048248291016,9.751100540161133,-0.1890397369861602,-1.356778860092163,-0.3499999940395355,-2.0299999713897705,-1.2599999904632568,22.587852478027344,-122.68792724609376,52.1183967590332,9.676919937133787,-1.3807079792022705,-0.9715206623077391,4.690000057220459,-2.450000047683716,-0.0700000002980232,64.76918029785156,14.042827606201172,77.195068359375,9.588382720947266,0.461831271648407,-1.217990159988403,2.0299999713897705,-4.199999809265137,-0.3499999940395355,85.33280944824219,-25.00062561035156,137.14508056640625
1,0.0192307692307692,9.30601978302002,-3.139495372772217,1.4812101125717163,1.75,-2.0999999046325684,-0.2100000083446502,165.28109741210938,-227.674545288086,170.21444702148438,9.849209785461426,0.6389064788818359,-0.5264397859573364,-1.0499999523162842,-0.4200000166893005,0.9800000190734864,157.8651885986328,-85.32408905029297,-172.20950317382812,9.83485221862793,-0.184253916144371,1.6654640436172483,-1.75,-1.820000052452088,2.1700000762939453,122.89573669433594,-207.675048828125,111.66090393066406,9.143301963806152,-3.3548572063446045,-1.4907817840576172,-1.0499999523162842,-1.8899999856948853,-1.4700000286102295,54.150001525878906,21.450000762939453,-19.950000762939453,9.31319808959961,3.1323165893554688,-0.5025107264518738,-1.8899999856948853,-0.4200000166893005,0.9100000262260436,62.24654769897461,-134.5174560546875,112.27864837646484,9.770243644714355,0.2680056989192962,0.1148595884442329,-0.699999988079071,-1.6100000143051147,0.0,117.8670654296875,-3.82141375541687,52.08401107788086,9.593168258666992,-0.8040171265602112,-1.3783150911331177,-1.3300000429153442,-1.0499999523162842,-0.5600000023841858,55.59210205078125,-50.092811584472656,-191.3536376953125,9.751100540161133,-0.1603248417377472,-1.3783150911331177,-0.3499999940395355,-2.0299999713897705,-1.399999976158142,22.16356658935547,-119.97940063476562,51.05932235717773,9.77263641357422,-1.2132043838500977,-1.0480937957763672,6.019999980926514,-2.5199999809265137,-0.1400000005960464,66.8503189086914,16.132400512695312,81.89730072021484,9.600347518920898,0.4809745252132416,-1.1366313695907593,2.0999999046325684,-3.990000009536743,-0.4200000166893005,84.51535034179688,-25.696935653686523,133.9430389404297
2,0.0384615384615384,9.303627014160156,-3.1490671634674072,1.39745831489563,1.9600000381469729,-2.0299999713897705,0.0,164.42210388183594,-227.82003784179688,168.0916290283203,9.870745658874512,0.6221560835838318,-0.5360113978385925,-0.9800000190734864,-0.3499999940395355,0.9100000262260436,158.46092224121094,-81.39583587646484,-167.872314453125,9.846817016601562,-0.1459673941135406,1.6678569316864014,-1.190000057220459,-1.820000052452088,2.0999999046325684,122.61396026611328,-208.1363677978516,113.26324462890624,9.138516426086426,-3.426644325256348,-1.5482115745544434,-1.190000057220459,-1.820000052452088,-1.4700000286102295,56.400001525878906,20.55000114440918,-19.5,9.260554313659668,3.027028799057007,-0.49054616689682,-2.240000009536743,-0.4900000095367431,0.9800000190734864,60.83430862426758,-134.54307556152344,112.14338684082033,9.803744316101074,0.2703986167907715,0.1172524988651275,0.8400000333786011,-3.009999990463257,-0.0700000002980232,118.43695831298828,-6.298278331756592,52.48225021362305,9.545310020446776,-0.8327320218086243,-1.4142086505889893,-1.399999976158142,-1.1200000047683716,-0.4900000095367431,57.93343353271485,-54.70670700073242,-189.3834991455078,9.696063995361328,-0.1986113786697387,-1.404637098312378,0.4200000166893005,-1.8899999856948853,-1.399999976158142,19.94799423217773,-120.69835662841795,48.14300155639648,9.77263641357422,-1.3735291957855225,-1.0265575647354126,4.550000190734863,-2.0299999713897705,-0.4200000166893005,67.63188171386719,18.901865005493164,80.98114013671875,9.547703742980955,0.4809745252132416,-1.217990159988403,2.240000009536743,-3.990000009536743,-0.4900000095367431,83.83108520507812,-25.04507637023925,134.34353637695312
3,0.0576923076923076,9.30601978302002,-3.1658174991607666,1.454888105392456,1.9600000381469729,-2.0299999713897705,0.0,166.9630584716797,-229.8304138183593,169.12008666992188,9.83485221862793,0.5814766883850098,-0.5264397859573364,-0.6299999952316284,-0.3499999940395355,0.9100000262260436,161.1165771484375,-85.82135009765625,-167.69329833984375,9.81092357635498,-0.1076808646321296,1.718108057975769,-1.190000057220459,-1.820000052452088,1.9600000381469729,124.07198333740234,-209.42124938964844,115.12850189208984,9.112194061279297,-3.3907508850097656,-1.5506044626235962,-0.5600000023841858,-1.8899999856948853,-1.5399999618530271,53.70000076293945,22.5,-22.05000114440918,9.315590858459473,3.043779134750366,-0.5264397859573364,-1.5399999618530271,-0.3499999940395355,0.9100000262260436,62.01835250854492,-132.8867950439453,112.4290542602539,9.820494651794434,0.1938255578279495,0.1770751923322677,0.7699999809265137,-3.0799999237060547,-0.1400000005960464,116.42820739746094,-6.772690773010254,50.729373931884766,9.528559684753418,-0.7944455146789551,-1.4189945459365845,-1.190000057220459,-0.9800000190734864,-0.5600000023841858,55.72475051879883,-53.54451370239258,-190.1439819335937,9.719992637634276,-0.2033971846103668,-1.4094228744506836,0.8400000333786011,-1.8899999856948853,-1.2599999904632568,19.81563377380371,-121.96758270263672,50.72261428833008,9.751100540161133,-1.3807079792022705,-0.9858781099319458,3.7100000381469727,-1.9600000381469729,-1.0499999523162842,65.88386535644531,16.52385902404785,78.88907623291016,9.602740287780762,0.4833674430847168,-1.1533817052841189,2.5899999141693115,-4.059999942779541,-0.6299999952316284,83.88245391845703,-25.31404495239257,134.71607971191406
4,0.0769230769230769,9.36584186553955,-3.139495372772217,1.4955675601959229,2.240000009536743,-2.0299999713897705,-0.1400000005960464,164.90765380859375,-230.03488159179688,167.135009765625,9.820494651794434,0.6412993669509888,-0.5766908526420593,0.1400000005960464,-0.4900000095367431,0.7699999809265137,157.69996643066406,-82.08025360107422,-169.39041137695312,9.82767391204834,-0.1698964685201645,1.706143498420715,-1.1200000047683716,-1.9600000381469729,1.820000052452088,121.04801940917967,-207.07521057128903,113.18147277832033,9.167230606079102,-3.378786325454712,-1.543425679206848,-0.2100000083446502,-1.8899999856948853,-1.680000066757202,54.30000305175781,21.0,-18.900001525878903,9.298840522766112,3.043779134750366,-0.4857603311538696,-0.6299999952316284,-0.2800000011920929,0.7699999809265137,63.207427978515625,-135.4696502685547,112.80435180664062,9.775029182434082,0.1651106625795364,0.12921704351902,0.7699999809265137,-2.940000057220459,-0.4200000166893005,116.42820739746094,-6.772690773010254,50.729373931884766,9.571632385253906,-0.8016242384910583,-1.3759222030639648,-1.2599999904632568,-0.9100000262260436,-0.699999988079071,54.074466705322266,-52.22132110595703,-191.58059692382807,9.719992637634276,-0.1316099464893341,-1.4453164339065552,0.8400000333786011,-2.309999942779541,-1.190000057220459,21.02532768249512,-122.46539306640624,48.663665771484375,9.741528511047363,-1.3519930839538574,-0.8805902004241943,2.799999952316284,-2.799999952316284,-1.680000066757202,66.40840911865234,15.637367248535156,78.72842407226562,9.595561027526855,0.4044014811515808,-1.2610626220703125,2.7300000190734863,-3.849999904632568,-0.699999988079071,84.04305267333984,-24.51966857910156,136.81842041015625
5,0.0961538461538461,9.377806663513184,-3.1323165893554688,1.4572809934616089,2.309999942779541,-2.0999999046325684,-0.3499999940395355,165.1500701904297,-227.1425628662109,168.6273956298828,9.832459449768066,0.6939433217048645,-0.569512128829956,0.1400000005960464,-0.4900000095367431,0.6299999952316284,159.30612182617188,-85.01264953613281,-170.0611572265625,9.81810188293457,-0.1962184607982635,1.739644169807434,-0.9800000190734864,-1.8899999856948853,1.75,124.7840805053711,-210.34703063964844,114.3988800048828,9.138516426086426,-3.362035751342773,-1.5649619102478027,0.4200000166893005,-1.9600000381469729,-1.8899999856948853,55.05000305175781,20.700000762939453,-19.200000762939453,9.31319808959961,3.1155662536621094,-0.5001177787780762,-0.2800000011920929,-0.0700000002980232,0.9100000262260436,61.81709671020508,-132.5706024169922,113.74812316894533,9.81092357635498,0.181861013174057,0.1411815732717514,1.2599999904632568,-3.0799999237060547,-0.4200000166893005,116.55200958251952,-4.945703506469727,50.21129608154297,9.58359718322754,-0.7848738431930542,-1.3160994052886963,-1.399999976158142,-0.9800000190734864,-0.7699999809265137,54.97629928588867,-51.306243896484375,-190.8636932373047,9.753493309020996,-0.0574297942221164,-1.4596738815307615,0.1400000005960464,-2.7300000190734863,-1.2599999904632568,21.389354705810547,-120.10704803466795,51.462440490722656,9.770243644714355,-1.32806396484375,-0.8686256408691406,2.6600000858306885,-2.7300000190734863,-1.680000066757202,66.65422821044922,17.210256576538086,80.68782043457031,9.571632385253906,0.5766908526420593,-1.1892752647399902,3.009999990463257,-3.7799999713897705,-0.8400000333786011,83.9176025390625,-23.426944732666016,137.71389770507812
6,0.1153846153846153,9.35866355895996,-3.1586387157440186,1.4142086505889893,2.450000047683716,-1.8899999856948853,-0.2800000011920929,165.75086975097656,-226.97265625,169.2142333984375,9.863567352294922,0.7011220455169678,-0.5790837407112122,-0.3499999940395355,-0.3499999940395355,0.8400000333786011,160.64134216308594,-82.56398010253906,-167.9538116455078,9.798958778381348,-0.1938255578279495,1.718108057975769,-0.7699999809265137,-1.820000052452088,1.8899999856948853,122.56082916259766,-209.4676818847656,112.04630279541016,9.172017097473145,-3.3476784229278564,-1.541032791137695,0.4900000095367431,-2.0299999713897705,-1.9600000381469729,55.50000381469727,23.100000381469727,-20.850000381469727,9.31319808959961,3.129923820495605,-0.5455830693244934,-0.5600000023841858,0.0,1.190000057220459,59.428985595703125,-132.2067413330078,110.323974609375,9.798958778381348,0.2249333560466766,0.1172524988651275,1.399999976158142,-3.3600001335144043,-0.4900000095367431,117.1519012451172,-5.816332340240479,52.2959213256836,9.595561027526855,-0.758551836013794,-1.3926725387573242,-1.680000066757202,-0.8400000333786011,-0.6299999952316284,57.76560974121094,-53.62290573120117,-189.75099182128903,9.75588607788086,-0.2249333560466766,-1.3902796506881714,-0.2800000011920929,-2.1700000762939453,-1.2599999904632568,22.5009765625,-120.54672241210938,52.63872528076172,9.765458106994627,-1.32806396484375,-0.8614469170570374,2.380000114440918,-2.799999952316284,-1.680000066757202,66.2747573852539,13.528524398803713,77.79474639892578,9.58359718322754,0.5001177787780762,-1.177310824394226,2.309999942779541,-3.7100000381469727,-0.8400000333786011,82.88946533203125,-23.80904197692871,135.55026245117188
7,0.1346153846153846,9.351485252380373,-3.1586387157440186,1.4812101125717163,2.6600000858306885,-1.75,-0.2800000011920929,163.93185424804688,-225.606201171875,168.90789794921875,9.90424633026123,0.708300769329071,-0.5455830693244934,-0.699999988079071,-0.3499999940395355,0.8400000333786011,159.6320343017578,-82.9421157836914,-169.55612182617188,9.79417324066162,-0.1340028494596481,1.6487137079238892,-0.4900000095367431,-1.8899999856948853,2.0299999713897705,122.71760559082033,-207.63375854492188,112.51052856445312,9.162445068359377,-3.3213565349578857,-1.555390238761902,0.0700000002980232,-1.8899999856948853,-1.820000052452088,54.60000228881836,21.450000762939453,-20.25,9.282090187072754,3.1012089252471924,-0.5431901216506958,-0.699999988079071,0.0,1.190000057220459,60.78425216674805,-132.9536895751953,111.44416046142578,9.784601211547852,0.2632198929786682,0.105287954211235,0.8400000333786011,-3.430000066757202,-0.3499999940395355,113.27059173583984,-6.53548526763916,47.84867477416992,9.617097854614258,-0.7633376717567444,-1.416601538658142,-1.680000066757202,-0.7699999809265137,-0.6299999952316284,54.599002838134766,-53.10781097412109,-191.7412567138672,9.74870777130127,-0.2010042816400528,-1.2849916219711304,0.699999988079071,-1.820000052452088,-1.1200000047683716,20.06694793701172,-123.87316131591795,50.10276412963867,9.7391357421875,-1.3639576435089111,-0.8279461860656738,2.309999942779541,-2.870000123977661,-1.5399999618530271,67.6458969116211,14.384839057922363,80.18032836914062,9.612311363220217,0.4379021823406219,-1.179703712463379,2.240000009536743,-3.640000104904175,-0.8400000333786011,86.37771606445312,-21.974720001220703,139.07632446289062
8,0.1538461538461538,9.36584186553955,-3.1251380443573,1.49317467212677,2.7300000190734863,-1.399999976158142,-0.3499999940395355,168.34275817871094,-229.5318756103516,169.4441375732422,9.865960121154783,0.7154794931411743,-0.5384043455123901,-0.7699999809265137,-0.3499999940395355,0.8400000333786011,158.04122924804688,-83.20632934570312,-170.0128631591797,9.839637756347656,-0.1076808646321296,1.7300724983215332,-0.0700000002980232,-1.9600000381469729,2.1700000762939453,123.06224822998048,-210.07925415039065,112.35508728027344,9.212696075439451,-3.330928087234497,-1.5984625816345217,-0.2100000083446502,-1.75,-1.680000066757202,54.900001525878906,23.100000381469727,-20.25,9.291662216186523,3.036600351333618,-0.5264397859573364,-0.3499999940395355,-0.0700000002980232,0.9100000262260436,61.253562927246094,-133.012451171875,113.11283111572266,9.801351547241213,0.260826975107193,0.0741801485419273,0.4200000166893005,-3.7799999713897705,-0.3499999940395355,114.34803771972656,-3.7825136184692383,49.59113693237305,9.585989952087402,-0.766927033662796,-1.4082263708114624,-1.6100000143051143,-0.7699999809265137,-0.6649999916553497,54.63175582885742,-53.24080657958984,-191.3444976806641,9.767850875854492,-0.1148595884442329,-1.4070299863815308,0.4900000095367431,-2.380000114440918,-1.3300000429153442,21.62094116210937,-123.05713653564452,51.779052734375,9.746315002441406,-1.3304568529129028,-0.8662327527999878,2.5899999141693115,-2.870000123977661,-1.399999976158142,65.70101928710938,16.564146041870117,79.59837341308594,9.600347518920898,0.5312256217002869,-1.2132043838500977,2.870000123977661,-3.569999933242798,-1.0499999523162842,82.34477233886719,-24.24693489074707,135.47628784179688
9,0.173076923076923,9.361056327819824,-3.1586387157440186,1.4524952173233032,2.5899999141693115,-1.0499999523162842,-0.2100000083446502,164.4362335205078,-227.8170623779297,168.5126190185547,9.84203052520752,0.6724071502685547,-0.5527617931365967,-0.9100000262260436,-0.3499999940395355,0.9100000262260436,155.35086059570312,-80.38804626464844,-172.0186004638672,9.873138427734377,-0.1196454018354415,1.6870001554489136,-0.0700000002980232,-1.8899999856948853,2.0299999713897705,122.44216918945312,-211.0138092041016,113.87580871582033,9.136122703552246,-3.366821765899658,-1.557783126831055,-0.2800000011920929,-1.820000052452088,-1.75,55.650001525878906,22.05000114440918,-20.700000762939453,9.291662216186523,3.0940301418304443,-0.521653950214386,0.3499999940395355,0.0,0.6299999952316284,63.65833282470703,-135.25250244140625,115.08279418945312,9.789386749267578,0.2345049977302551,0.0837517827749252,0.3499999940395355,-3.920000076293945,-0.4200000166893005,114.3197784423828,-3.788461446762085,48.7491569519043,9.554882049560549,-0.7705163955688477,-1.3998512029647827,-1.5399999618530271,-0.7699999809265137,-0.699999988079071,54.66450881958008,-53.373802185058594,-190.9477386474609,9.743921279907228,-0.1651106625795364,-1.359171748161316,-0.2100000083446502,-2.309999942779541,-1.5399999618530271,20.273025512695312,-119.6683578491211,50.14582443237305,9.777422904968262,-1.2610626220703125,-0.8518753051757812,2.7300000190734863,-2.870000123977661,-1.6100000143051147,67.72171020507812,15.161369323730469,79.75672912597656,9.595561027526855,0.5551546812057495,-1.179703712463379,2.799999952316284,-3.569999933242798,-0.8400000333786011,84.52519226074219,-25.41507911682129,135.39479064941406
10,0.1923076923076923,9.341913223266602,-3.120352268218994,1.4668526649475098,2.6600000858306885,-0.9100000262260436,-0.3499999940395355,164.96250915527344,-227.103271484375,169.1963653564453,9.846817016601562,0.7250511646270752,-0.5431901216506958,-0.9800000190734864,-0.3499999940395355,0.9100000262260436,158.242919921875,-83.2426528930664,-170.1608428955078,9.873138427734377,-0.105287954211235,1.7635732889175415,-0.5600000023841858,-1.9600000381469729,2.0299999713897705,124.48861694335938,-210.05067443847656,112.91134643554688,9.116979598999023,-3.342892646789551,-1.584105134010315,-0.1400000005960464,-1.6100000143051147,-1.75,55.20000076293945,23.100000381469727,-19.200000762939453,9.308412551879885,3.1155662536621094,-0.4833674430847168,0.7699999809265137,0.0700000002980232,0.5600000023841858,60.967960357666016,-132.43423461914062,113.07705688476562,9.78340482711792,0.2177546396851539,0.0729836970567703,0.385000005364418,-3.990000009536743,-0.385000005364418,115.27528762817384,-5.401855826377869,49.29787254333496,9.547703742980955,-0.8327320218086243,-1.4596738815307615,-1.680000066757202,-0.7699999809265137,-0.6299999952316284,55.290618896484375,-51.11785125732422,-192.65481567382807,9.753493309020996,-0.1555390208959579,-1.3615647554397583,0.8400000333786011,-1.820000052452088,-1.190000057220459,19.09325790405273,-121.60352325439452,48.82938766479492,9.765458106994627,-1.3783150911331177,-0.93323415517807,1.9600000381469729,-2.7300000190734863,-1.6100000143051147,68.19234466552734,16.423019409179688,81.09870910644531,9.57402515411377,0.4833674430847168,-1.1174880266189575,2.7300000190734863,-3.640000104904175,-0.6299999952316284,84.55170440673828,-27.009422302246094,135.39236450195312
11,0.2115384615384615,9.303627014160156,-3.120352268218994,1.4764243364334106,2.870000123977661,-0.6299999952316284,-0.4900000095367431,165.11325073242188,-226.5907440185547,169.84695434570312,9.863567352294922,0.7250511646270752,-0.5838695764541626,-1.0499999523162842,-0.2100000083446502,1.0499999523162842,157.1034698486328,-82.529052734375,-171.0080108642578,9.885103225708008,-0.1100737750530242,1.718108057975769,-1.0499999523162842,-2.0299999713897705,1.75,122.29450225830078,-208.60562133789065,113.7429428100586,9.167230606079102,-3.3141777515411377,-1.541032791137695,-0.2100000083446502,-1.6100000143051147,-1.680000066757202,55.95000076293945,21.30000114440918,-20.100000381469727,9.332341194152832,3.117959260940552,-0.5144752264022827,0.8400000333786011,-0.0700000002980232,0.699999988079071,62.05767059326172,-135.79856872558594,113.17430114746094,9.777422904968262,0.2010042816400528,0.0622156113386154,0.4200000166893005,-4.059999942779541,-0.3499999940395355,116.23079681396484,-7.015250205993652,49.846588134765625,9.55727481842041,-0.8423036336898804,-1.4094228744506836,-1.9600000381469729,-0.8400000333786011,-0.6299999952316284,55.7988166809082,-54.36827087402344,-191.4119873046875,9.741528511047363,-0.1220383122563362,-1.4453164339065552,0.9100000262260436,-1.8899999856948853,-1.0499999523162842,19.35103416442871,-121.90782165527344,49.19427490234375,9.758278846740724,-1.387886643409729,-0.8758043646812439,1.75,-2.5899999141693115,-1.6100000143051147,66.87903594970703,16.899017333984375,80.07040405273438,9.612311363220217,0.49054616689682,-1.1749178171157837,2.6600000858306885,-3.7799999713897705,-0.7699999809265137,84.58524322509766,-21.721811294555664,134.92759704589844
12,0.2307692307692307,9.308412551879885,-3.153852939605713,1.5075321197509766,3.0799999237060547,-0.4200000166893005,-0.4200000166893005,164.34156799316406,-228.5975646972656,168.37489318847656,9.892282485961914,0.7848738431930542,-0.5503688454627991,-1.3300000429153442,-0.2800000011920929,1.190000057220459,158.77566528320312,-80.92756652832031,-168.4923553466797,9.873138427734377,-0.1459673941135406,1.7324655055999756,-1.399999976158142,-1.9600000381469729,1.6100000143051147,121.41842651367188,-207.15480041503903,111.90321350097656,9.174409866333008,-3.3213565349578857,-1.557783126831055,-0.3499999940395355,-1.5399999618530271,-1.820000052452088,56.25000381469727,23.850000381469727,-19.5,9.315590858459473,3.1586387157440186,-0.4737958014011383,0.7699999809265137,-0.1400000005960464,0.699999988079071,61.20043182373047,-134.34378051757812,111.89588928222656,9.746315002441406,0.1866468340158462,0.102895051240921,0.5600000023841858,-4.409999847412109,-0.4900000095367431,114.5124740600586,-3.546893835067749,49.49161911010742,9.564454078674316,-0.7896596789360046,-1.4022440910339355,-1.820000052452088,-0.8400000333786011,-0.6299999952316284,55.04476547241211,-53.171531677246094,-190.7742462158203,9.719992637634276,-0.0981092303991317,-1.464459776878357,-0.1400000005960464,-2.0299999713897705,-1.0499999523162842,22.292829513549805,-122.11168670654295,51.80196380615234,9.763065338134766,-1.3496001958847046,-0.8686256408691406,1.820000052452088,-2.5199999809265137,-1.6100000143051147,68.26334381103516,12.67855739593506,79.31298065185547,9.590775489807127,0.5264397859573364,-1.1270596981048584,2.450000047683716,-3.7100000381469727,-0.7699999809265137,84.49398040771484,-23.82172966003418,135.2568817138672
13,0.25,9.341913223266602,-3.161031484603882,1.4883887767791748,3.3600001335144043,-0.2800000011920929,-0.4200000166893005,163.69204711914062,-225.8576812744141,166.76214599609375,9.887495994567873,0.7130866050720215,-0.5384043455123901,-1.4700000286102295,-0.1400000005960464,1.1200000047683716,158.2266082763672,-85.12578582763672,-172.5973358154297,9.806137084960938,-0.102895051240921,1.7348583936691284,-1.5399999618530271,-2.0999999046325684,1.6100000143051147,123.08405303955078,-211.67459106445312,112.21232604980467,9.162445068359377,-3.295034408569336,-1.56256902217865,-0.7699999809265137,-1.6100000143051147,-1.820000052452088,54.900001525878906,22.200000762939453,-20.25,9.31319808959961,3.1729960441589355,-0.5360113978385925,0.1400000005960464,-0.2100000083446502,0.8400000333786011,60.967960357666016,-132.43423461914062,113.07705688476562,9.81092357635498,0.2321120798587799,0.1124666780233383,0.3499999940395355,-4.619999885559082,-0.4900000095367431,116.28778076171876,-6.242684841156006,48.861663818359375,9.545310020446776,-0.7441943883895874,-1.3902796506881714,-1.9600000381469729,-0.8400000333786011,-0.7699999809265137,55.55474472045898,-54.34086990356445,-192.5269927978516,9.75588607788086,-0.1220383122563362,-1.3807079792022705,-0.5600000023841858,-2.0299999713897705,-1.2599999904632568,19.91588592529297,-120.14554595947266,49.50288009643555,9.736742973327637,-1.32806396484375,-0.8518753051757812,1.5399999618530271,-2.6600000858306885,-1.820000052452088,67.63176727294922,14.381864547729492,79.75933837890625,9.53334617614746,0.5049036145210266,-1.201239824295044,2.0299999713897705,-3.7799999713897705,-0.7699999809265137,84.92857360839844,-25.48772430419922,135.0988311767578
14,0.2692307692307693,9.325162887573242,-3.139495372772217,1.4429235458374023,3.3600001335144043,-0.1400000005960464,-0.4200000166893005,165.83773803710938,-229.1138458251953,168.69390869140625,9.86117458343506,0.6604426503181458,-0.540797233581543,-1.4700000286102295,-0.1400000005960464,0.9800000190734864,158.07212829589844,-80.5595474243164,-169.8242645263672,9.81810188293457,-0.1124666780233383,1.689393162727356,-1.75,-2.0999999046325684,1.6100000143051147,121.73524475097656,-209.3263702392578,112.0768814086914,9.14808750152588,-3.369214534759521,-1.5123178958892822,-0.7699999809265137,-1.8899999856948853,-1.6100000143051147,55.80000305175781,23.400001525878903,-19.80000114440918,9.310805320739746,3.146674156188965,-0.466617077589035,-0.2800000011920929,-0.1400000005960464,0.8400000333786011,60.424583435058594,-131.5517120361328,112.67639923095705,9.81810188293457,0.2153617292642593,0.1220383122563362,0.3499999940395355,-4.760000228881836,-0.4900000095367431,117.73384857177734,-5.650383472442627,52.321434020996094,9.581204414367676,-0.7370156645774841,-1.404637098312378,-2.0999999046325684,-0.699999988079071,-0.6299999952316284,56.946475982666016,-51.88030624389648,-188.7356719970703,9.717599868774414,-0.208183005452156,-1.4118157625198364,-0.7699999809265137,-1.6100000143051147,-1.3300000429153442,18.961355209350582,-122.11207580566406,48.74011993408203,9.700849533081056,-1.335242748260498,-0.8470894694328308,1.4700000286102295,-2.5899999141693115,-1.680000066757202,67.26521301269531,13.902692794799805,78.83573913574219,9.538131713867188,0.5575475692749023,-1.1725249290466309,1.6100000143051147,-3.7799999713897705,-0.6299999952316284,84.95211791992188,-25.48276901245117,135.8004913330078
15,0.2884615384615385,9.316787719726562,-3.169406771659851,1.4656561613082886,3.290000081062317,-0.0700000002980232,-0.4200000166893005,166.4648666381836,-228.41820526123047,169.30367279052734,9.856388092041016,0.6604426503181458,-0.540797233581543,-1.4700000286102295,0.0,1.1200000047683716,158.08021545410156,-81.87798309326172,-169.21690368652344,9.830066680908203,-0.0693943351507186,1.6750357151031494,-2.0999999046325684,-2.0299999713897705,1.4700000286102295,122.99717712402344,-209.53338623046875,112.73265838623048,9.155266761779783,-3.3835721015930176,-1.5099250078201294,-0.6299999952316284,-1.820000052452088,-1.6100000143051147,55.650001525878906,22.350000381469727,-19.5,9.325162887573242,3.141888380050659,-0.5551546812057495,-0.8400000333786011,-0.4200000166893005,0.8400000333786011,60.65791702270508,-132.90150451660156,113.83741760253906,9.8085298538208,0.2153617292642593,0.1507532149553299,0.9100000262260436,-4.900000095367432,-0.4200000166893005,118.98635864257812,-5.859395980834961,52.69655227661133,9.595561027526855,-0.8088029623031616,-1.4309589862823486,-2.0999999046325684,-0.4900000095367431,-0.6299999952316284,51.586212158203125,-49.15949249267578,-192.563217163086,9.734350204467772,-0.2129688262939453,-1.42378032207489,-0.7699999809265137,-1.6100000143051147,-1.3300000429153442,21.997806549072266,-121.53543853759766,51.48553085327149,9.728367805480955,-1.3149030208587646,-0.865036278963089,1.645000040531159,-2.5549999475479126,-1.5750000476837158,67.73091888427734,15.023415565490724,79.45184326171875,9.547703742980955,0.49054616689682,-1.1222739219665527,1.5399999618530271,-3.849999904632568,-0.699999988079071,86.04151153564453,-24.60698509216309,135.9484405517578
16,0.3076923076923077,9.308412551879885,-3.1993181705474854,1.4883887767791748,3.220000028610229,0.0,-0.4200000166893005,167.0919952392578,-227.7225646972656,169.91343688964844,9.882710456848145,0.6221560835838318,-0.5288326740264893,-1.399999976158142,0.3499999940395355,1.3300000429153442,160.60572814941406,-85.21174621582031,-168.28274536132812,9.84203052520752,-0.1220383122563362,1.6941789388656616,-2.799999952316284,-2.0299999713897705,1.3300000429153442,123.2408218383789,-209.8406677246093,112.6765594482422,9.138516426086426,-3.4122869968414307,-1.5697476863861084,-0.7699999809265137,-1.680000066757202,-1.680000066757202,56.70000076293945,23.55000114440918,-19.350000381469727,9.284482955932615,3.137102603912353,-0.5384043455123901,-1.2599999904632568,-0.6299999952316284,0.8400000333786011,62.86442184448242,-135.94386291503906,112.5823974609375,9.786993980407717,0.1459673941135406,0.1005021408200264,1.3300000429153442,-5.179999828338623,-0.5600000023841858,117.01146697998048,-5.286325454711914,50.42820739746094,9.542917251586914,-0.7705163955688477,-1.42378032207489,-2.0999999046325684,-0.2800000011920929,-0.699999988079071,57.86025619506836,-52.842411041259766,-189.6132659912109,9.741528511047363,-0.1794681102037429,-1.4189945459365845,-0.699999988079071,-1.680000066757202,-1.3300000429153442,20.90709686279297,-123.73163604736328,51.66426849365234,9.75588607788086,-1.2945632934570312,-0.8829830884933472,1.820000052452088,-2.5199999809265137,-1.4700000286102295,68.19662475585938,16.14413833618164,80.06794738769531,9.576417922973633,0.4737958014011383,-1.1749178171157837,1.6100000143051147,-3.849999904632568,-0.7699999809265137,85.24713897705078,-26.059011459350582,136.11691284179688
17,0.3269230769230769,9.32277011871338,-3.180174827575684,1.5099250078201294,2.799999952316284,-0.0700000002980232,-0.4200000166893005,167.3913116455078,-228.57769775390625,169.1990966796875,9.815709114074709,0.5838695764541626,-0.5240468978881836,-0.9800000190734864,0.3499999940395355,1.3300000429153442,157.3466796875,-83.11619567871094,-172.23521423339844,9.853995323181152,-0.1483602970838546,1.6917860507965088,-3.220000028610229,-2.0999999046325684,1.190000057220459,124.0329818725586,-210.7495880126953,114.3325424194336,9.121766090393066,-3.4601449966430664,-1.5362470149993896,-0.2100000083446502,-1.680000066757202,-1.8899999856948853,57.60000228881836,21.600000381469727,-22.05000114440918,9.308412551879885,3.1323165893554688,-0.4977248907089233,-1.4700000286102295,-0.699999988079071,0.9800000190734864,62.21148300170898,-132.3653564453125,114.34261322021484,9.837244987487791,0.1914326548576355,0.0765730589628219,2.0299999713897705,-5.389999866485596,-0.7699999809265137,116.77635955810548,-6.017611980438232,52.26275253295898,9.562060356140137,-0.825553297996521,-1.4022440910339355,-2.0299999713897705,-0.3499999940395355,-0.8400000333786011,51.968994140625,-50.83639144897461,-194.264892578125,9.728367805480955,-0.1603248417377471,-1.42378032207489,-0.6299999952316284,-1.820000052452088,-1.2950000166893003,20.10660648345948,-121.88460540771484,50.7353744506836,9.789386749267578,-1.3137065172195437,-0.9021263718605042,2.309999942779541,-2.6600000858306885,-1.4700000286102295,67.38812255859375,14.689138412475586,79.81543731689453,9.578810691833496,0.4737958014011383,-1.1820966005325315,1.5399999618530271,-3.920000076293945,-0.699999988079071,85.25184631347656,-26.05802154541016,136.2572479248047
18,0.3461538461538461,9.308412551879885,-3.218461275100708,1.5027462244033811,2.799999952316284,-0.2800000011920929,-0.4200000166893005,164.40029907226562,-226.22471618652344,168.234375,9.796566009521484,0.5312256217002869,-0.509689450263977,0.1400000005960464,0.4200000166893005,1.2599999904632568,158.59654235839844,-85.9660415649414,-171.2067108154297,9.84203052520752,-0.1866468340158462,1.6319633722305298,-2.940000057220459,-2.0299999713897705,1.1200000047683716,123.427490234375,-210.9205017089844,113.60537719726562,9.023656845092772,-3.441001892089844,-1.485995888710022,0.9100000262260436,-1.820000052452088,-1.9600000381469729,55.20000076293945,21.75,-19.950000762939453,9.29644775390625,3.146674156188965,-0.5384043455123901,-2.0999999046325684,-0.7699999809265137,1.1200000047683716,59.98823928833008,-131.4860076904297,111.9900360107422,9.832459449768066,0.1435744911432266,0.06460852175951,3.0799999237060547,-5.670000076293945,-1.0499999523162842,116.48090362548828,-5.721243381500244,50.77522277832031,9.585989952087402,-0.7992312908172607,-1.356778860092163,-1.9600000381469729,-0.4900000095367431,-0.9100000262260436,54.62814712524414,-52.06132125854492,-192.3970642089844,9.71520709991455,-0.1411815732717514,-1.4285660982131958,-0.5600000023841858,-1.9600000381469729,-1.2599999904632568,19.306116104125977,-120.0375747680664,49.80648040771485,9.70563507080078,-1.3759222030639648,-0.8710185289382935,2.380000114440918,-2.6600000858306885,-1.5399999618530271,68.4577865600586,14.520413398742676,80.89984893798828,9.58359718322754,0.509689450263977,-1.1820966005325315,1.399999976158142,-3.7799999713897705,-0.7699999809265137,84.5312271118164,-24.09367179870605,135.20843505859375
19,0.3653846153846154,9.282090187072754,-3.1658174991607666,1.4812101125717163,3.0799999237060547,-0.699999988079071,-0.4900000095367431,163.59475708007812,-229.2790069580078,167.27780151367188,9.870745658874512,0.5575475692749023,-0.466617077589035,1.1200000047683716,0.5600000023841858,1.2599999904632568,158.84707641601562,-84.39215087890625,-169.1069793701172,9.865960121154783,-0.1890397369861602,1.7228938341140747,-2.5899999141693115,-2.1700000762939453,1.190000057220459,123.427490234375,-210.9205017089844,113.60537719726562,9.042799949645996,-3.433823108673096,-1.508728563785553,1.330000013113022,-1.9250000119209287,-2.0299999713897705,54.900001525878906,22.425000190734863,-20.17500114440918,9.351485252380373,3.1083877086639404,-0.5240468978881836,-2.7300000190734863,-0.9100000262260436,1.2599999904632568,64.36878204345703,-133.25857543945312,114.7305679321289,9.853995323181152,0.12921704351902,0.0693943351507186,3.640000104904175,-6.090000152587891,-1.3300000429153442,117.1977081298828,-6.646038055419922,50.18592834472656,9.578810691833496,-0.7705163955688477,-1.3854937553405762,-1.8899999856948853,-0.3499999940395355,-0.9100000262260436,54.513771057128906,-53.886322021484375,-191.59832763671875,9.696063995361328,-0.1411815732717514,-1.4070299863815308,-0.5600000023841858,-1.680000066757202,-1.399999976158142,18.528404235839844,-123.36579895019533,48.52077865600586,9.703242301940918,-1.3496001958847046,-0.8423036336898804,2.380000114440918,-2.6600000858306885,-1.5399999618530271,66.82295227050781,17.166994094848633,79.55753326416016,9.614705085754396,0.5168681740760803,-1.1749178171157837,1.399999976158142,-3.7100000381469727,-0.7699999809265137,85.52464294433594,-25.31880187988281,135.54534912109375
20,0.3846153846153846,9.27969741821289,-3.261533737182617,1.5960696935653689,2.240000009536743,-0.8400000333786011,-0.0700000002980232,165.31451416015625,-226.90695190429688,168.5278778076172,9.942533493041992,0.5072965025901794,-0.3900440335273742,1.9600000381469729,1.3300000429153442,1.2599999904632568,157.31753540039062,-84.16268920898438,-171.57940673828125,9.820494651794434,-0.2033971846103668,1.7085363864898682,-2.450000047683716,-2.0999999046325684,1.3300000429153442,124.02324676513672,-206.511459350586,114.10259246826172,9.06194305419922,-3.426644325256348,-1.531461238861084,1.75,-2.0299999713897705,-2.0999999046325684,54.60000228881836,23.100000381469727,-20.400001525878903,9.32277011871338,3.1083877086639404,-0.5240468978881836,-2.940000057220459,-0.9100000262260436,1.3300000429153442,60.56272506713867,-138.4818878173828,111.30680084228516,9.803744316101074,0.1244312226772308,0.016750356182456,4.130000114440918,-5.809999942779541,-1.680000066757202,116.48090362548828,-5.721243381500244,50.77522277832031,9.530953407287598,-0.7346227765083313,-1.438137769699097,-1.820000052452088,-0.2100000083446502,-0.9100000262260436,52.92559814453125,-51.50970077514648,-192.7084350585937,9.79417324066162,-0.1172524988651275,-1.395065426826477,-0.8400000333786011,-1.5399999618530271,-1.399999976158142,18.19831657409668,-120.63744354248048,50.26830673217773,9.758278846740724,-1.356778860092163,-0.8758043646812439,2.450000047683716,-2.6600000858306885,-1.6100000143051147,68.72026824951172,14.217105865478516,81.40506744384766,9.57402515411377,0.5120823383331299,-1.1270596981048584,1.2599999904632568,-3.849999904632568,-0.8400000333786011,87.17920684814453,-26.920875549316406,135.95120239257812
21,0.4038461538461538,9.310805320739746,-3.1993181705474854,1.3089207410812378,2.870000123977661,-2.1700000762939453,-0.1400000005960464,164.51971435546875,-228.6388397216797,167.5252685546875,9.997570037841797,0.5240468978881836,-0.3038993179798126,7.630000114440918,3.5,0.0,157.6010284423828,-82.58187103271484,-168.4973602294922,9.851602554321287,-0.1411815732717514,1.6678569316864014,-2.5199999809265137,-1.8899999856948853,1.190000057220459,123.5080108642578,-210.1429748535156,113.32211303710938,9.133729934692385,-3.510396242141724,-1.541032791137695,2.6600000858306885,-2.1700000762939453,-2.380000114440918,55.95000076293945,22.05000114440918,-19.5,9.337127685546877,3.058136463165283,-0.569512128829956,-2.870000123977661,-0.8400000333786011,1.3300000429153442,61.334083557128906,-132.2349395751953,112.82955932617188,9.798958778381348,0.1890397369861602,0.0119645409286022,4.130000114440918,-5.670000076293945,-1.8899999856948853,117.5660171508789,-4.566578388214111,51.95393753051758,9.554882049560549,-0.7609447836875916,-1.3400285243988037,-2.0999999046325684,-0.2800000011920929,-0.8400000333786011,57.79814529418945,-53.89583969116211,-189.9397735595703,9.72238540649414,-0.1603248417377472,-1.4070299863815308,-0.699999988079071,-1.3300000429153442,-1.4700000286102295,22.89482307434082,-125.141357421875,50.84031295776367,9.736742973327637,-1.304134964942932,-0.8686256408691406,2.309999942779541,-2.5899999141693115,-1.5399999618530271,67.99186706542969,13.25975513458252,79.69819641113281,9.578810691833496,0.5288326740264893,-1.1438100337982178,1.0499999523162842,-3.920000076293945,-0.7699999809265137,85.9549560546875,-26.70591354370117,136.41806030273438
22,0.4230769230769231,9.174409866333008,-3.2926416397094727,1.404637098312378,3.150000095367432,-2.0999999046325684,-0.0700000002980232,162.81202697753906,-228.3680877685547,165.9024658203125,10.588618278503418,0.3852581977844238,0.3565433025360107,18.34000015258789,8.609999656677246,-2.240000009536743,163.79678344726562,-84.68135070800781,-167.088623046875,9.815709114074709,-0.2010042816400528,1.6678569316864014,-2.7300000190734863,-1.8899999856948853,1.190000057220459,124.00647735595705,-209.1552581787109,114.33497619628906,9.13133716583252,-3.589362144470215,-1.5673547983169556,3.7100000381469727,-2.450000047683716,-2.1700000762939453,57.00000381469727,21.150001525878903,-20.25,9.351485252380373,3.062922477722168,-0.466617077589035,-2.450000047683716,-0.9100000262260436,1.190000057220459,59.638450622558594,-129.32138061523438,110.83405303955078,9.82767391204834,0.1627177447080612,-0.0693943351507186,5.110000133514404,-4.760000228881836,-2.0999999046325684,115.8334503173828,-5.621198177337647,49.9561767578125,9.53334617614746,-0.7250511646270752,-1.3208853006362915,-2.5899999141693115,-0.4900000095367431,-0.8400000333786011,54.51683807373047,-50.96562194824219,-191.08059692382807,9.729564666748049,-0.181861013174057,-1.4022440910339355,-0.4900000095367431,-1.2599999904632568,-1.6100000143051147,21.544265747070312,-124.3934097290039,49.86045837402344,9.72238540649414,-1.2921704053878784,-0.8375178575515747,2.0299999713897705,-2.5199999809265137,-1.6100000143051147,67.97652435302734,16.45636749267578,80.82569885253906,9.593168258666992,0.4977248907089233,-1.1605603694915771,1.0499999523162842,-3.7799999713897705,-0.6299999952316284,86.40457153320312,-27.328393936157227,135.18321228027344
23,0.4423076923076923,9.38259220123291,-3.407501220703125,1.438137769699097,-2.940000057220459,-0.699999988079071,0.5600000023841858,164.87860107421875,-226.5613708496093,169.0126190185547,10.81594467163086,-0.8040171265602112,1.074415683746338,34.720001220703125,16.729999542236328,-6.440000057220459,161.43603515625,-85.35208129882812,-168.17300415039062,9.801351547241213,-0.2440766245126724,1.6558923721313477,-2.6600000858306885,-1.9600000381469729,0.9100000262260436,122.75395965576172,-208.9462432861328,113.95985412597656,9.105015754699709,-3.98419189453125,-1.4883887767791748,5.110000133514404,-4.340000152587891,-1.75,56.85000228881836,21.900001525878903,-18.75,9.356270790100098,3.022243022918701,-0.4881532490253448,-2.380000114440918,-0.699999988079071,1.0499999523162842,62.44352722167969,-134.55477905273438,111.99034118652344,9.849209785461426,0.3110780417919159,-0.0813588723540306,6.369999885559082,-3.7100000381469727,-2.5199999809265137,115.06187438964844,-3.108011245727539,49.70592498779297,9.576417922973633,-0.7705163955688477,-1.3472073078155518,-2.6600000858306885,-0.7699999809265137,-0.7699999809265137,54.44958114624024,-52.2999153137207,-192.71853637695312,9.7391357421875,-0.2153617292642593,-1.3735291957855225,-0.1400000005960464,-1.1200000047683716,-1.5399999618530271,19.996410369873047,-119.36802673339844,49.2196159362793,9.717599868774414,-1.3519930839538574,-0.8327320218086243,1.2599999904632568,-2.5899999141693115,-1.6100000143051147,65.73312377929688,16.011337280273438,78.23849487304688,9.58359718322754,0.4690099954605102,-1.1294525861740112,1.2599999904632568,-3.7799999713897705,-0.7699999809265137,84.59673309326172,-24.359668731689453,136.001953125
24,0.4615384615384615,9.31319808959961,-3.211282730102539,1.4716384410858154,-9.59000015258789,1.820000052452088,1.5399999618530271,164.68589782714844,-226.8029327392578,168.27015686035156,11.105486869812012,-1.2897775173187256,1.3376356363296509,53.54999923706055,25.82999992370605,-7.630000114440918,156.54299926757812,-80.05020141601562,-171.12557983398438,9.858781814575195,-0.2488624453544616,1.6080342531204224,-2.450000047683716,-2.0299999713897705,0.8400000333786011,124.76227569580078,-208.751708984375,114.54163360595705,9.160052299499512,-5.259612083435059,-1.3328498601913452,7.559999942779541,-8.609999656677246,-1.820000052452088,56.25000381469727,23.25,-19.650001525878903,9.317984580993652,3.0509579181671143,-0.5072965025901794,-2.450000047683716,-0.6299999952316284,1.0499999523162842,59.085086822509766,-133.72149658203125,111.5998077392578,9.782208442687988,0.4977248907089233,-0.0239290818572044,4.690000057220459,-3.0799999237060547,-2.6600000858306885,115.43093872070312,-4.988807201385498,52.59432220458984,9.564454078674316,-0.746587336063385,-1.3448143005371094,-2.5899999141693115,-0.9800000190734864,-0.9100000262260436,55.39555358886719,-49.7756233215332,-189.8942413330078,9.75588607788086,-0.1459673941135406,-1.42378032207489,0.4200000166893005,-1.190000057220459,-1.680000066757202,21.10714340209961,-120.8482437133789,51.89368438720703,9.712814331054688,-1.3256710767745972,-0.7920525670051575,1.190000057220459,-2.7300000190734863,-1.680000066757202,65.0222396850586,13.737537384033203,77.41962432861328,9.600347518920898,0.5288326740264893,-1.1988469362258911,1.75,-3.7799999713897705,-0.9100000262260436,85.58501434326172,-25.86566162109375,135.02745056152344
25,0.4807692307692308,9.353878021240234,-3.2830698490142822,1.1940611600875854,-13.720000267028809,3.430000066757202,0.6299999952316284,166.87913513183594,-229.2885131835937,168.93634033203125,10.20814609527588,0.7441943883895874,0.0454652532935142,67.62000274658203,31.43000030517578,-9.100000381469728,157.7487335205078,-84.5092544555664,-172.2044677734375,9.940139770507812,-0.2297191768884658,1.6463208198547363,-1.8899999856948853,-2.1700000762939453,0.699999988079071,121.6475067138672,-207.74490356445312,110.25502014160156,8.68147087097168,-8.095208168029785,-0.3972227573394775,21.6299991607666,-18.549999237060547,-4.550000190734863,55.35000228881836,21.900001525878903,-20.100000381469727,9.345502853393556,3.043779134750366,-0.5108858644962311,-2.590000033378601,-0.699999988079071,1.0149999856948853,59.444149017333984,-133.52368927001953,111.14181900024414,9.710420608520508,0.6604426503181458,-0.1005021408200264,1.0499999523162842,-2.5899999141693115,-2.799999952316284,114.79762268066406,-4.885787963867188,52.19627380371094,9.612311363220217,-0.7872667908668518,-1.3472073078155518,-2.0999999046325684,-1.0499999523162842,-1.1200000047683716,53.87059783935547,-54.06515884399414,-193.44813537597656,9.779815673828123,-0.2632198929786682,-1.395065426826477,0.9800000190734864,-1.0499999523162842,-1.75,21.340938568115234,-121.43737030029295,50.38582611083984,9.779815673828123,-1.296956181526184,-0.8351249098777771,1.399999976158142,-2.940000057220459,-1.680000066757202,67.21394348144531,18.69166374206543,79.68500518798828,9.607525825500488,0.5072965025901794,-1.1725249290466309,1.9600000381469729,-3.7799999713897705,-0.8400000333786011,85.75623321533203,-28.26889038085937,135.86195373535156
26,0.5,9.411307334899902,-3.161031484603882,1.4477094411849976,-15.470000267028809,2.5899999141693115,-0.4200000166893005,165.9495849609375,-225.40966796875,169.7703399658203,10.390007019042969,2.0052568912506104,-0.1722893863916397,58.65999984741211,33.599998474121094,-7.490000247955322,160.24652099609375,-83.04910278320312,-169.71939086914062,9.956890106201172,-0.2943277060985565,1.6606782674789429,-0.2100000083446502,-1.8899999856948853,0.6299999952316284,125.47819519042967,-210.717041015625,115.45011901855467,8.107172966003418,-11.330419540405272,0.2632198929786682,68.73999786376953,-27.51000022888184,-0.2100000083446502,53.70000076293945,22.05000114440918,-20.700000762939453,9.373021125793455,3.036600351333618,-0.5144752264022827,-2.7300000190734863,-0.7699999809265137,0.9800000190734864,59.8032112121582,-133.3258819580078,110.68383026123048,9.703242301940918,0.5072965025901794,-0.205790102481842,-3.220000028610229,-2.7300000190734863,-2.799999952316284,115.00227355957033,-6.521407604217529,51.34421920776367,9.679313659667969,-0.6939433217048645,-1.3687434196472168,-1.8899999856948853,-0.8400000333786011,-1.3300000429153442,54.61872863769531,-52.06330108642578,-192.6777191162109,9.75588607788086,-0.2225404530763626,-1.404637098312378,0.9800000190734864,-0.9100000262260436,-1.6100000143051147,23.90073013305664,-123.4438018798828,51.97561264038086,9.717599868774414,-1.3160994052886963,-0.7944455146789551,1.680000066757202,-3.009999990463257,-1.680000066757202,67.76837921142578,14.891409873962402,79.98892974853516,9.56684684753418,0.4857603311538696,-1.177310824394226,2.380000114440918,-3.7100000381469727,-0.9100000262260436,86.55574035644531,-26.536001205444336,137.00489807128906
27,0.5192307692307693,9.270126342773438,-3.218461275100708,1.5099250078201294,-11.619999885559082,1.8899999856948853,-2.0299999713897705,166.3096923828125,-226.5317840576172,169.70919799804688,12.29954719543457,2.419229984283448,0.758551836013794,27.57999992370605,44.380001068115234,-0.9100000262260436,156.91458129882812,-83.81017303466797,-170.1123504638672,9.980819702148438,-0.2105759084224701,1.7228938341140747,1.8899999856948853,-1.3300000429153442,0.5600000023841858,122.09709167480467,-208.8481903076172,112.8601531982422,7.702771186828613,-9.571632385253906,-0.9428057670593262,108.91999816894533,-34.09000015258789,31.920000076293945,55.50000381469727,24.30000114440918,-18.600000381469727,9.320377349853516,3.0174570083618164,-0.461831271648407,-2.5199999809265137,-0.699999988079071,0.9100000262260436,63.8232307434082,-134.2562255859375,112.31439971923828,9.674527168273926,0.363722026348114,-0.1076808646321296,-6.300000190734863,-3.920000076293945,-3.009999990463257,115.54357147216795,-4.764091968536377,50.95117568969727,9.4950590133667,-0.7226582169532776,-1.4213874340057373,-2.6600000858306885,-0.4200000166893005,-1.5399999618530271,57.51386260986328,-51.99720001220703,-190.30224609375,9.696063995361328,-0.0693943351507186,-1.3926725387573242,0.4900000095367431,-1.190000057220459,-1.6100000143051147,18.91511917114257,-121.56224822998048,49.679012298583984,9.734350204467772,-1.3424214124679563,-0.8614469170570374,2.0999999046325684,-3.220000028610229,-1.75,68.00128173828125,13.261737823486328,79.9788589477539,9.58359718322754,0.4737958014011383,-1.170132040977478,2.5899999141693115,-3.7799999713897705,-0.9800000190734864,86.78832244873047,-23.92554473876953,137.0455322265625
28,0.5384615384615385,9.387378692626951,-3.161031484603882,1.4524952173233032,-10.220000267028809,1.820000052452088,-3.220000028610229,162.5607147216797,-226.46250915527344,166.52232360839844,11.976504802703856,2.414444208145142,0.9320377111434937,9.590000152587889,54.56500053405762,4.550000101327896,158.90729522705078,-82.81895446777344,-169.5995330810547,9.995177268981934,-0.1459673941135406,1.9262909889221191,3.640000104904175,-1.4700000286102295,0.5600000023841858,123.6338882446289,-210.9558258056641,113.59773254394533,8.24596118927002,-11.619961738586426,-1.4118157625198364,84.48999786376953,-28.84000015258789,91.9800033569336,56.70000076293945,19.950000762939453,-20.700000762939453,9.373021125793455,2.9983139038085938,-0.5336185097694397,-2.0999999046325684,-0.8400000333786011,0.7699999809265137,59.16900253295898,-134.26339721679688,111.78356170654295,9.882710456848145,0.3278284072875976,-0.1507532149553299,-3.569999933242798,-4.829999923706055,-3.3600001335144043,114.78777313232422,-5.167644023895264,50.7445182800293,9.526166915893556,-0.7202653288841248,-1.6391420364379885,-4.829999923706055,-0.0700000002980232,-1.680000066757202,56.17436599731445,-54.166988372802734,-191.3788299560547,9.696063995361328,0.1005021408200264,-1.42378032207489,-1.680000066757202,-1.399999976158142,-1.3300000429153442,21.694578170776367,-124.1607666015625,49.33994674682617,9.693670272827148,-1.3496001958847046,-0.8614469170570374,1.2599999904632568,-3.3600001335144043,-1.75,67.53843688964844,14.921783447265623,79.29492950439453,9.58359718322754,0.5551546812057495,-1.1749178171157837,2.0299999713897705,-3.7100000381469727,-0.9100000262260436,83.68636322021484,-24.23618698120117,133.506591796875
29,0.5576923076923077,9.406521797180176,-2.8930258750915527,1.2275618314743042,-10.56999969482422,2.240000009536743,-3.289999961853028,165.57701110839844,-227.2102508544922,169.03309631347656,11.653462409973145,2.409658432006836,1.1055235862731934,-8.399999618530273,64.75,10.010000228881836,160.90000915527344,-81.8277359008789,-169.0867156982422,9.865960121154783,-0.2297191768884658,1.8784328699111936,5.880000114440918,-1.820000052452088,0.2800000011920929,123.5358428955078,-210.4169006347656,112.99298858642578,10.882946014404297,-13.397891998291016,-0.8566610813140869,56.13999938964844,-35.97999954223633,135.1699981689453,54.00000381469727,21.30000114440918,-18.0,9.451987266540527,3.0102784633636475,-0.509689450263977,-1.820000052452088,-0.699999988079071,0.6299999952316284,61.08441162109375,-133.2490692138672,113.072021484375,9.770243644714355,0.5384043455123901,-0.3756865561008453,-2.870000123977661,-5.460000038146973,-3.640000104904175,117.65289306640624,-6.707778453826904,51.4336051940918,9.538131713867188,-0.6867645978927612,-1.8521108627319336,-7.210000038146973,0.699999988079071,-1.2599999904632568,52.894805908203125,-49.636478424072266,-191.6752319335937,9.708027839660645,0.1651106625795364,-1.3519930839538574,-4.199999809265137,-1.190000057220459,-1.0499999523162842,19.41786003112793,-120.85340118408205,49.66111373901367,9.74870777130127,-1.2825987339019775,-0.9882710576057434,-0.3499999940395355,-3.0799999237060547,-1.75,65.70355224609375,14.684974670410156,77.72319793701172,9.521381378173828,0.5862624645233154,-1.131845474243164,0.9800000190734864,-3.640000104904175,-0.7699999809265137,85.20561218261719,-25.50818634033203,137.19613647460938
30,0.576923076923077,9.270126342773438,-2.907383441925049,1.3160994052886963,-10.220000267028809,1.680000066757202,-4.199999809265137,162.7020263671875,-225.9519805908203,166.89224243164062,10.660405158996582,2.500588893890381,0.679585874080658,-37.65999984741211,75.45999908447266,20.15999984741211,158.87242126464844,-82.30611419677734,-171.40090942382812,9.729564666748049,-0.2991135120391845,1.8425391912460327,6.720000267028809,-1.75,-0.2100000083446502,122.5814208984375,-207.86343383789065,113.45203399658205,9.650598526000977,-14.826458930969238,-0.5168681740760803,75.04000091552734,-41.369998931884766,178.85000610351562,53.55000305175781,21.30000114440918,-16.80000114440918,9.516595840454102,3.05574369430542,-0.5240468978881836,-0.699999988079071,-0.1400000005960464,0.699999988079071,64.00222778320312,-133.7377471923828,113.80696105957033,9.708027839660645,0.3469716608524322,-0.1794681102037429,-6.860000133514404,-3.009999990463257,-2.450000047683716,114.89787292480467,-3.063758373260498,50.97653579711914,9.523774147033691,-0.765730619430542,-1.9119335412979128,-9.170000076293944,1.9600000381469729,-0.8400000333786011,55.669551849365234,-52.23599243164063,-192.1546325683593,9.73195743560791,0.0095716323703527,-1.32806396484375,-6.789999961853027,-0.9800000190734864,-0.9800000190734864,20.177051544189453,-121.76927947998048,50.33478927612305,9.820494651794434,-1.2538838386535645,-1.019378900527954,-2.5899999141693115,-2.450000047683716,-1.5399999618530271,67.57272338867188,16.2491397857666,79.95055389404297,9.571632385253906,0.5120823383331299,-1.1844894886016846,-0.2800000011920929,-3.640000104904175,-0.5600000023841858,85.1217041015625,-24.966285705566406,137.01239013671875
31,0.5961538461538461,9.167230606079102,-3.084458589553833,1.3759222030639648,-7.699999809265137,0.1400000005960464,-5.389999866485596,166.39450073242188,-226.0331268310547,168.39517211914062,11.351956367492676,2.0674726963043213,1.0887731313705444,-58.72999954223633,78.95999908447266,27.86000061035156,159.47573852539062,-84.01536560058594,-172.68923950195312,9.554882049560549,-0.1651106625795364,1.7635732889175415,5.949999809265137,-1.820000052452088,-0.3499999940395355,121.21673583984376,-207.11846923828125,112.05118560791016,7.56158971786499,-10.870981216430664,-1.6176059246063232,-46.900001525878906,-26.600000381469727,231.7700042724609,53.400001525878906,17.700000762939453,-14.550000190734863,9.45438003540039,3.196925163269043,-0.5144752264022827,0.2800000011920929,0.2100000083446502,0.9800000190734864,60.45240783691406,-131.8256378173828,112.34728240966795,9.73195743560791,0.3732936680316925,-0.06460852175951,-11.550000190734863,0.1400000005960464,-1.3300000429153442,117.24317169189452,-3.716411828994751,51.96662521362305,9.82767391204834,-0.7753022313117981,-1.8712540864944456,-10.079999923706056,2.6600000858306885,-0.6299999952316284,55.29104995727539,-50.83797454833984,-191.4837188720703,9.7391357421875,-0.1579319387674331,-1.3831008672714231,-7.980000019073486,-0.699999988079071,-1.4700000286102295,21.073745727539062,-121.1350555419922,49.74027633666992,9.815709114074709,-1.208418607711792,-1.074415683746338,-4.480000019073486,-1.190000057220459,-1.2599999904632568,65.83074188232422,15.192537307739258,77.67213439941406,9.547703742980955,0.5719050168991089,-1.1868823766708374,-0.4900000095367431,-3.569999933242798,-0.5600000023841858,86.01707458496094,-25.652484893798828,136.74456787109375
32,0.6153846153846154,9.254571914672852,-3.0916372537612915,1.4201909899711609,-6.7200000286102295,0.0,-5.319999933242798,165.26314544677734,-226.63796997070312,168.1553497314453,11.048056602478027,1.3735291957855225,1.806645631790161,-72.30999755859375,92.88999938964844,30.450000762939453,158.52462768554688,-86.82052612304688,-176.82496643066406,9.485487937927246,0.0454652532935142,1.799466848373413,2.240000009536743,-2.380000114440918,0.0700000002980232,122.9166488647461,-210.3109130859375,113.01593017578124,9.585989952087402,-21.89989471435547,-2.2230117321014404,-2.7300000190734863,-56.97999954223633,326.8299865722656,51.30000305175781,17.25,-15.000000953674316,9.45438003540039,3.1586387157440186,-0.3900440335273742,1.8899999856948853,0.4200000166893005,0.9800000190734864,61.26165771484375,-134.3308868408203,113.72017669677734,9.815709114074709,0.27997025847435,0.033500712364912,-13.020000457763672,0.7699999809265137,-0.1400000005960464,116.4625015258789,-5.44533634185791,51.3849983215332,9.684099197387695,-0.93323415517807,-1.7587873935699463,-8.890000343322754,1.190000057220459,-0.5600000023841858,55.06021499633789,-51.84814453125,-190.6799468994141,9.664956092834473,-0.2584340870380401,-1.2730270624160769,-7.420000076293945,-1.2599999904632568,-1.5399999618530271,19.63959503173828,-124.08534240722656,48.525970458984375,9.868352890014648,-1.263455510139465,-1.0385221242904663,-4.690000057220459,-0.0700000002980232,-1.3300000429153442,66.44268798828125,16.964723587036133,79.38404083251953,9.578810691833496,0.5671192407608032,-1.2036327123641968,-0.2800000011920929,-3.569999933242798,-0.3499999940395355,85.87278747558594,-24.563724517822266,137.07872009277344
33,0.6346153846153847,9.341913223266602,-3.09881591796875,1.464459776878357,-5.740000247955322,-0.1400000005960464,-5.25,164.1317901611328,-227.2428131103516,167.91552734375,11.069592475891112,-0.4044014811515808,2.3857293128967285,-87.70999908447266,108.98999786376952,46.970001220703125,159.95066833496094,-82.55180358886719,-176.21798706054688,9.518988609313965,0.06460852175951,1.873647093772888,-2.0299999713897705,-3.150000095367432,0.4200000166893005,124.10879516601562,-209.9730682373047,113.90894317626952,12.644125938415527,-22.50769424438477,-5.417543888092041,106.0500030517578,-87.77999877929688,407.6100158691406,50.25000381469727,14.40000057220459,-9.15000057220459,9.250982284545898,3.007885456085205,-0.3517574965953827,4.829999923706055,0.6299999952316284,-0.0700000002980232,62.98569107055664,-132.23770141601562,113.93949127197266,10.054999351501465,0.3015064299106598,0.0622156113386154,-11.619999885559082,0.5600000023841858,-0.2100000083446502,119.65692901611328,-6.2343573570251465,53.046146392822266,9.542917251586914,-1.012200117111206,-1.4836030006408691,-7.490000247955322,1.1200000047683716,-0.8400000333786011,55.46918869018555,-50.87925338745117,-192.3333435058593,9.55009651184082,-0.3158638775348663,-1.3615647554397583,-2.5899999141693115,-1.5399999618530271,-1.0499999523162842,20.686248779296875,-119.45915222167967,51.30162811279297,9.83485221862793,-1.3304569125175476,-0.98109233379364,-3.3600000143051147,0.4899999760091305,-1.4700000286102295,67.61445999145508,15.838252067565918,79.45687866210938,9.564454078674316,0.382865309715271,-1.2897775173187256,1.190000057220459,-3.3600001335144043,-0.2800000011920929,83.99462890625,-25.849998474121094,135.74180603027344
34,0.6538461538461539,9.770243644714355,-2.749451398849488,1.514710783958435,-5.389999866485596,0.9100000262260436,-3.150000095367432,164.98388671875,-228.9784698486328,167.88250732421875,11.387849807739258,-3.2711052894592285,3.687471389770508,-73.08000183105469,134.82000732421875,71.12000274658203,157.3325958251953,-82.15757751464844,-180.33615112304688,9.664956092834473,0.2249333560466766,1.7683590650558472,-4.409999847412109,-3.7100000381469727,0.2800000011920929,122.95697021484376,-207.6621551513672,113.48519897460938,13.510358810424805,-24.73788452148437,-5.678370952606201,167.3699951171875,-108.77999877929688,461.1600036621094,45.0,9.15000057220459,-6.450000286102295,9.071514129638672,3.287855625152588,-0.4785816073417663,7.070000171661377,0.1400000005960464,-1.4700000286102295,64.17137908935547,-133.5011444091797,113.84777069091795,10.045428276062012,0.5025107264518738,0.0981092303991317,-11.480000495910645,1.680000066757202,0.4900000095367431,115.88055419921876,-5.611285209655762,51.35947799682617,9.581204414367676,-0.7753022313117981,-1.3400285243988037,-7.0,1.6100000143051147,-1.1200000047683716,55.20538330078125,-51.8963623046875,-192.51187133789065,9.64341926574707,-0.1914326548576355,-1.4907817840576172,-0.4900000095367431,-2.7300000190734863,-0.4200000166893005,21.044597625732425,-122.18155670166016,50.39608001708984,9.801351547241213,-1.39745831489563,-0.923662543296814,-2.0299999713897705,1.0499999523162842,-1.6100000143051147,68.7862319946289,14.711780548095703,79.52971649169922,9.576417922973633,0.4355092644691467,-1.2538838386535645,2.940000057220459,-2.870000123977661,-0.8400000333786011,85.24068450927734,-27.66029167175293,135.13218688964844
35,0.6730769230769231,10.06935691833496,-2.5340895652771,1.2610626220703125,-6.720000267028809,3.150000095367432,-1.680000066757202,164.00294494628906,-224.8306579589844,168.34397888183594,10.887731552124023,-5.003571033477783,3.479288339614868,-52.56999969482422,151.47999572753906,110.11000061035156,158.8795928955078,-87.74270629882812,-182.0375061035156,9.870745658874512,0.27997025847435,1.612820029258728,-7.699999809265137,-3.990000009536743,-0.5600000023841858,121.27874755859376,-210.5850372314453,111.15589141845705,11.13659381866455,-20.248788833618164,-5.319434642791748,185.7100067138672,-94.70999908447266,492.8699951171875,43.05000305175781,7.500000476837158,-1.8000000715255735,8.930333137512207,3.189746379852295,-0.521653950214386,4.269999980926514,-1.680000066757202,-2.380000114440918,59.49195861816406,-130.59356689453125,112.99267578125,9.875532150268556,0.5479759573936462,0.1459673941135406,-11.970000267028809,2.7300000190734863,2.309999942779541,114.8122100830078,-4.122143745422363,49.94838333129883,9.58359718322754,-0.6365135312080383,-1.3472073078155518,-6.369999885559082,1.1200000047683716,-0.9800000190734864,56.0935173034668,-50.704383850097656,-191.0448608398437,9.851602554321287,-0.2273262739181518,-1.4022440910339355,-0.2800000011920929,-3.150000095367432,-0.2100000083446502,20.63608169555664,-122.3897705078125,49.3806037902832,9.703242301940918,-1.277812957763672,-0.8973405361175537,-0.6299999952316284,1.75,-1.680000066757202,65.16191864013672,17.16778564453125,78.16694641113281,9.58359718322754,0.3589362204074859,-1.1509888172149658,3.7100000381469727,-2.450000047683716,-1.4700000286102295,81.73456573486328,-24.41883087158203,134.60877990722656
36,0.6923076923076923,9.959283828735352,-2.940884113311768,1.81382429599762,-7.139999866485596,3.7100000381469727,-1.820000052452088,163.75328063964844,-225.84478759765625,168.58644104003906,10.648441314697266,-4.651813507080078,4.017692565917969,-48.22999954223633,156.58999633789062,151.1300048828125,157.5260772705078,-85.39546966552734,-182.3132781982422,10.064571380615234,0.1770751923322677,1.552997350692749,-11.550000190734863,-3.7799999713897705,-1.190000057220459,123.07299041748048,-208.75686645507807,112.30906677246094,9.968854904174805,-16.07794952392578,-4.848031997680664,183.259994506836,-78.4000015258789,514.2200317382812,37.95000076293945,4.5,2.8500001430511475,8.913582801818848,3.187353610992432,-0.540797233581543,-0.0700000002980232,-3.7799999713897705,-2.0999999046325684,62.02085494995117,-135.2467498779297,114.39385986328124,9.918603897094728,0.2512553632259369,0.2512553632259369,-11.130000114440918,1.680000066757202,4.340000152587891,116.37387084960938,-4.904425144195557,51.0609245300293,9.696063995361328,-0.5790837407112122,-1.1940611600875854,-7.210000038146973,1.8899999856948853,-1.190000057220459,55.09878158569336,-50.79966735839844,-191.0550842285156,9.990391731262209,-0.1722893863916397,-1.3400285243988037,-2.5899999141693115,-2.0999999046325684,-0.2800000011920929,21.06771469116211,-122.45646667480467,49.9266357421875,9.729564666748049,-1.3519930839538574,-0.9164838194847108,-0.7699999809265137,2.0299999713897705,-1.680000066757202,68.54127502441406,13.698637008666992,79.91250610351562,9.655384063720703,0.5264397859573364,-1.079201579093933,3.7100000381469727,-2.5899999141693115,-1.5399999618530271,84.22885131835938,-26.15925407409668,135.40504455566406
37,0.7115384615384616,9.435236930847168,-3.3285350799560547,1.462066888809204,-3.849999904632568,4.340000152587891,-4.409999847412109,165.5967254638672,-226.165756225586,168.0966339111328,11.08395004272461,-5.520439147949219,4.603955268859863,-42.13999938964844,163.02999877929688,181.8600006103516,157.38674926757812,-92.58504486083984,-186.95127868652344,10.184216499328612,0.1722893863916397,1.679821491241455,-13.720000267028809,-3.150000095367432,-0.699999988079071,123.48194122314452,-208.26876831054688,114.4956283569336,6.958576679229736,-13.505573272705078,-3.8836898803710938,176.1199951171875,-60.130001068115234,516.739990234375,32.55000305175781,1.5,6.0,9.083478927612305,3.26392674446106,-0.4761887192726135,-3.220000028610229,-5.740000247955322,-1.399999976158142,61.63042449951172,-131.4907684326172,112.8193130493164,9.928175926208496,0.0,0.2273262739181518,-7.980000019073486,-0.6299999952316284,4.900000095367432,120.34076690673828,-7.166090965270996,51.47454452514648,9.775029182434082,-0.708300769329071,-1.0313433408737185,-6.579999923706055,2.7300000190734863,-1.4700000286102295,55.455379486083984,-55.12236022949219,-192.80503845214844,10.011927604675291,-0.2321120798587799,-1.141417145729065,-4.409999847412109,-0.699999988079071,-0.8400000333786011,23.62322807312012,-124.18400573730467,52.54718399047852,9.77263641357422,-1.1940611600875854,-0.7298369407653809,-0.6299999952316284,2.0999999046325684,-1.820000052452088,65.31726837158203,13.161295890808104,77.7360610961914,9.626668930053713,0.5934411883354187,-0.9404128789901732,2.5199999809265137,-3.009999990463257,-1.2599999904632568,84.57011413574219,-27.285329818725582,134.78257751464844
38,0.7307692307692308,9.119372367858888,-3.4051082134246826,1.5362470149993896,1.820000052452088,4.619999885559082,-5.599999904632568,165.38726806640625,-229.0511169433593,167.58656311035156,10.497687339782717,-5.934412002563477,4.649420261383057,-39.40999984741211,168.6300048828125,207.6199951171875,157.67117309570312,-89.48289489746094,-189.2069854736328,10.043035507202148,0.1507532149553299,1.6870001554489136,-14.770000457763672,-1.8899999856948853,-0.2100000083446502,123.44764709472656,-209.5961151123047,113.84001159667967,3.816688299179077,-10.00953483581543,-3.079672813415528,167.08999633789062,-52.56999969482422,501.5499877929688,22.5,-1.5,8.700000762939453,9.23423194885254,3.311784744262696,-0.5623334050178528,-4.760000228881836,-5.949999809265137,-0.6299999952316284,59.67262649536133,-132.51402282714844,110.26787567138672,9.703242301940918,-0.1124666780233383,0.2033971846103668,-6.929999828338623,-1.820000052452088,3.7100000381469727,116.20811462402344,-6.460460662841797,51.48712921142578,9.740332126617432,-0.7023185193538666,-0.9451986849308016,-6.089999914169312,2.940000057220459,-1.75,55.05567932128906,-53.72880172729492,-192.7656097412109,9.839637756347656,-0.2680056989192962,-1.072022795677185,-3.3600001335144043,0.2800000011920929,-1.2599999904632568,21.755481719970703,-119.90774536132812,51.21494674682617,9.82528018951416,-1.3113136291503906,-0.5527617931365967,-0.699999988079071,1.75,-1.75,66.37925720214844,14.590877532958984,79.38422393798828,9.667348861694336,0.569512128829956,-1.0361292362213137,2.0999999046325684,-3.3600001335144043,-0.8400000333786011,85.78109741210938,-26.943517684936523,136.23692321777344
39,0.75,8.899225234985352,-3.2376046180725098,1.531461238861084,4.900000095367432,4.829999923706055,-4.829999923706055,163.84278869628906,-225.3451690673828,167.41273498535156,10.760908126831056,-5.436686992645264,4.38380765914917,-36.540000915527344,170.02999877929688,223.08999633789065,154.9518585205078,-96.47122955322266,-191.8294372558593,9.925783157348633,0.1627177447080612,1.612820029258728,-15.190000534057615,-1.0499999523162842,-0.9800000190734864,120.48230743408205,-209.3972320556641,110.53067016601562,1.81382429599762,-10.483330726623535,-3.5462896823883057,143.00999450683594,-45.5,477.5400085449219,16.200000762939453,-3.150000095367432,14.40000057220459,9.447200775146484,3.3285350799560547,-0.5647262930870056,-5.740000247955322,-5.179999828338623,0.0,62.43671798706055,-132.39671325683594,114.8962860107422,9.631455421447754,-0.105287954211235,0.2129688262939453,-7.490000247955322,-1.8899999856948853,2.450000047683716,116.53359985351562,-4.669795989990234,50.82107162475586,9.70563507080078,-0.6963362693786621,-0.8590540289878845,-5.599999904632568,3.150000095367432,-2.0299999713897705,54.65597915649414,-52.335243225097656,-192.72618103027344,9.612311363220217,-0.2703986167907715,-1.2849916219711304,0.3499999940395355,0.7699999809265137,-1.2599999904632568,19.11341667175293,-120.27913665771484,49.06401824951172,9.717599868774414,-1.3926725387573242,-0.4977248907089233,0.699999988079071,0.699999988079071,-2.0299999713897705,66.44226837158203,16.684850692749023,78.21294403076172,9.528559684753418,0.6221560835838318,-1.0768086910247805,3.3600001335144043,-3.849999904632568,-0.5600000023841858,84.94237518310547,-21.2446231842041,135.57052612304688
40,0.7692307692307693,8.935118675231934,-3.079672813415528,1.718108057975769,6.440000057220459,3.7100000381469727,-3.220000028610229,164.63584899902344,-225.21356201171875,167.57093811035156,10.193788528442385,-6.4464945793151855,4.654206275939941,-29.540000915527344,167.22999572753906,234.9199981689453,154.65805053710938,-99.09457397460938,-193.69435119628903,9.870745658874512,0.0071787242777645,1.4429235458374023,-15.75,-0.4900000095367431,-3.220000028610229,124.1229248046875,-209.9700927734375,114.32994079589844,0.4020085632801056,-9.741528511047363,-3.318963527679444,129.14999389648438,-43.540000915527344,450.6600036621094,11.700000762939451,-4.050000190734863,16.350000381469727,9.545310020446776,3.4673237800598145,-0.6915504336357117,-8.609999656677246,-5.110000133514404,0.699999988079071,61.26604843139648,-130.0897674560547,113.91121673583984,9.61949062347412,0.0119645409286022,0.2536482512950897,-7.139999866485596,-1.2599999904632568,2.0999999046325684,118.14960479736328,-7.320343017578125,51.60206985473633,9.633848190307615,-0.6580497026443481,-0.9715206623077391,-4.480000019073486,2.940000057220459,-2.5899999141693115,55.109519958496094,-49.477272033691406,-191.10110473632807,9.597954750061035,-0.1531461179256439,-1.2897775173187256,2.6600000858306885,0.5600000023841858,-1.190000057220459,19.482934951782227,-121.3992691040039,49.28354263305664,9.743921279907228,-1.335242748260498,-0.4642241597175598,2.450000047683716,-0.699999988079071,-2.0299999713897705,68.53962707519531,16.618350982666016,80.2898941040039,9.55009651184082,0.4714028835296631,-1.131845474243164,5.039999961853027,-4.269999980926514,-0.3499999940395355,88.09856414794922,-27.322246551513672,137.55612182617188
41,0.7884615384615385,9.090658187866213,-3.141888380050659,1.890397429466248,7.559999942779541,0.5600000023841858,-1.4700000286102295,167.0354766845703,-227.7344512939453,168.22947692871094,9.894675254821776,-5.977484226226807,4.915033340454102,-17.56999969482422,163.72999572753906,236.4600067138672,153.9479522705078,-104.84783172607422,-197.23280334472656,9.81810188293457,-0.1316099464893341,1.246705174446106,-17.360000610351562,0.0700000002980232,-5.949999809265137,122.96507263183594,-208.98057556152344,114.09254455566406,-0.1387886703014373,-9.064335823059082,-3.534325361251831,132.22999572753906,-46.34000015258789,415.6600036621094,8.850000381469727,-3.900000095367432,17.400001525878906,9.406521797180176,3.395536661148072,-0.667621374130249,-13.09000015258789,-5.320000171661377,1.820000052452088,61.31984329223633,-136.75790405273438,111.18677520751952,9.696063995361328,0.1675035655498504,0.363722026348114,-3.920000076293945,-0.9100000262260436,2.1700000762939453,117.36257934570312,-6.130544185638428,51.25750732421875,9.629061698913574,-0.6652284264564514,-1.1079164743423462,-3.009999990463257,2.799999952316284,-2.870000123977661,55.6031608581543,-53.01054000854492,-191.45037841796875,9.63624095916748,-0.1363957673311233,-1.4716384410858154,4.269999980926514,-0.3499999940395355,-1.2599999904632568,18.57299995422364,-120.99591064453124,47.95927810668945,9.698456764221191,-1.318492412567139,-0.5742979645729065,3.009999990463257,-1.820000052452088,-2.0299999713897705,66.63496398925781,16.92641830444336,78.95540618896484,9.578810691833496,0.5192610621452332,-1.217990159988403,6.789999961853027,-4.409999847412109,-0.1400000005960464,85.23136901855469,-23.14227294921875,136.0733184814453
42,0.8076923076923077,9.105015754699709,-3.1849606037139893,2.0052568912506104,8.399999618530273,-1.9600000381469729,-1.4700000286102295,164.6204071044922,-226.5369415283203,167.4766387939453,9.786993980407717,-6.0325212478637695,5.367292881011963,-0.2800000011920929,147.4199981689453,234.8500061035156,151.3260498046875,-103.89484405517578,-199.1490936279297,9.729564666748049,-0.4498667120933532,1.2060257196426392,-17.010000228881836,0.5600000023841858,-7.349999904632568,122.6794662475586,-208.40235900878903,114.05677032470705,-0.4331163763999939,-7.035149574279785,-2.641770601272583,148.25999450683594,-52.08000183105469,370.6499938964844,3.150000095367432,-0.9000000357627869,18.30000114440918,9.339520454406738,3.443394660949707,-0.5814766883850098,-15.119999885559082,-4.900000095367432,2.5199999809265137,61.87866973876953,-136.31704711914062,111.6817398071289,9.698456764221191,0.1172524988651275,0.3900440335273742,0.4900000095367431,-1.4700000286102295,2.1700000762939453,116.91046905517578,-3.148099184036255,50.52754974365234,9.612311363220217,-0.6341206431388855,-1.263455510139465,-1.5399999618530271,3.009999990463257,-2.940000057220459,56.206581115722656,-50.19979476928711,-191.51690673828125,9.72238540649414,-0.1172524988651275,-1.4213874340057373,2.7300000190734863,-0.7699999809265137,-1.190000057220459,21.177818298339844,-120.35257720947266,50.15865707397461,9.743921279907228,-1.2658483982086182,-0.6915504336357117,4.340000152587891,-2.5899999141693115,-1.9600000381469729,68.67756652832031,18.44831275939941,80.19280242919922,9.547703742980955,0.4163660109043121,-1.1079164743423462,6.159999847412109,-3.990000009536743,-0.5600000023841858,86.22479248046875,-24.367401123046875,136.4102325439453
43,0.826923076923077,9.186373710632324,-3.448180675506592,2.1751534938812256,9.449999809265137,-3.849999904632568,-2.5899999141693115,164.7608642578125,-226.58615112304688,165.50436401367188,9.181588172912598,-5.527617931365967,5.068179130554199,38.150001525878906,125.3000030517578,234.22000122070312,149.7569122314453,-110.2743911743164,-200.9703826904297,9.782208442687988,-0.6867645978927612,1.3208853006362915,-14.06999969482422,1.2599999904632568,-6.860000133514404,125.62083435058594,-208.88609313964844,115.4933624267578,-0.4498667120933532,-5.123216152191162,-1.7587873935699463,149.52000427246094,-54.95000076293945,319.2699890136719,2.1000001430511475,-0.75,16.350000381469727,9.282090187072754,3.441001892089844,-0.7106937170028687,-15.75,-4.130000114440918,2.240000009536743,63.13247680664063,-135.68643188476562,115.57014465332033,9.734350204467772,0.0765730589628219,0.4857603311538696,4.619999885559082,-2.5899999141693115,2.0299999713897705,117.11893463134766,-5.823271751403809,51.3136100769043,9.4950590133667,-0.5910483002662659,-1.2802058458328247,-0.2800000011920929,2.799999952316284,-2.5899999141693115,54.518585205078125,-49.36532974243164,-190.23619079589844,9.77263641357422,-0.181861013174057,-1.387886643409729,0.699999988079071,-0.7699999809265137,-1.2599999904632568,22.8653564453125,-121.94771575927734,51.54682159423828,9.753493309020996,-1.2562767267227173,-0.7681235074996948,5.670000076293945,-3.009999990463257,-1.8899999856948853,67.22928619384766,15.495051383972168,78.55750274658203,9.581204414367676,0.5168681740760803,-1.074415683746338,4.480000019073486,-3.920000076293945,-0.699999988079071,85.37137603759766,-23.95215034484864,136.76992797851562
44,0.8461538461538463,9.413700103759766,-3.3548572063446045,2.053115129470825,11.829999923706056,-5.740000247955322,-3.849999904632568,167.7416534423828,-225.461654663086,168.9080047607422,8.896832466125488,-3.323749303817749,4.773851871490479,85.81999969482422,111.44000244140624,225.19000244140625,147.87875366210938,-111.56066131591795,-202.30731201171875,9.887495994567873,-0.5384043455123901,1.3639576435089111,-8.819999694824219,1.190000057220459,-4.550000190734863,123.27938842773438,-208.7921905517578,112.30142211914062,-0.2321120798587799,-6.575711250305176,0.0382865294814109,142.02999877929688,-56.77000045776367,266.1400146484375,-2.550000190734864,0.6000000238418579,15.90000057220459,9.253376007080078,3.1921393871307373,-0.7681235074996948,-17.5,-3.5,1.4700000286102295,59.56206512451172,-135.37855529785156,112.70472717285156,9.73195743560791,-0.0047858161851763,0.4091872870922088,8.1899995803833,-3.990000009536743,1.680000066757202,114.74669647216795,-3.856149673461914,49.15485763549805,9.499845504760742,-0.648478090763092,-1.2706341743469238,0.2100000083446502,2.0299999713897705,-2.0299999713897705,54.99777603149414,-48.66144561767578,-190.95574951171875,9.856388092041016,-0.205790102481842,-1.3615647554397583,-0.3499999940395355,-0.699999988079071,-1.75,22.162248611450195,-121.29981994628906,51.386009216308594,9.741528511047363,-1.246705174446106,-0.8135887384414673,6.230000019073486,-3.3600001335144043,-1.820000052452088,67.24516296386719,17.09831428527832,79.82290649414062,9.564454078674316,0.4594383537769317,-1.0887731313705444,2.450000047683716,-4.130000114440918,-0.8400000333786011,85.04841613769531,-27.62198638916016,135.56082153320312
45,0.8653846153846154,9.0978364944458,-3.342892646789551,2.10097336769104,13.720000267028809,-7.139999866485596,-5.179999828338623,166.3606414794922,-227.08062744140625,168.91064453125,7.877453327178955,-1.9932924509048464,5.867410659790039,138.74000549316406,109.1999969482422,181.22999572753903,147.37855529785156,-114.148681640625,-204.16458129882807,10.002355575561523,-0.208183005452156,1.359171748161316,-3.849999904632568,0.7699999809265137,-2.1700000762939453,123.27938842773438,-208.7921905517578,112.30142211914062,0.0753766149282455,-7.097365379333496,0.484563898295164,149.34500122070312,-62.3700008392334,243.4250106811524,-3.00000011920929,2.2500000596046448,15.000000476837158,9.23662567138672,2.873882532119751,-0.7681235074996948,-18.479999542236328,-3.289999961853028,-0.3499999940395355,62.393009185791016,-133.72605895996094,113.95999908447266,9.64581298828125,-0.0813588723540306,0.4139730930328369,11.130000114440918,-4.619999885559082,1.190000057220459,117.78182983398438,-4.599926471710205,52.22694778442383,9.535738945007324,-0.7561589479446411,-1.1557745933532717,0.2100000083446502,1.0499999523162842,-1.5399999618530271,53.827430725097656,-50.59461975097656,-191.99151611328125,9.837244987487791,-0.2129688262939453,-1.4764243364334106,0.9800000190734864,-0.699999988079071,-2.309999942779541,19.02654266357422,-118.137939453125,49.5843505859375,9.758278846740724,-1.2802058458328247,-0.8303391337394714,5.740000247955322,-3.289999961853028,-1.6100000143051147,66.50777435302734,16.418855667114258,79.0064697265625,9.63624095916748,0.5120823383331299,-1.177310824394226,1.3300000429153442,-3.990000009536743,-0.7699999809265137,85.04841613769531,-27.62198638916016,135.56082153320312
46,0.8846153846153847,9.150480270385742,-3.476895570755005,1.718108057975769,10.079999923706056,-8.050000190734863,-6.019999980926514,164.25733947753906,-223.81553649902344,168.24185180664062,7.587911605834961,-1.0911661386489868,6.391457557678223,197.3999938964844,114.0999984741211,119.9800033569336,143.517822265625,-113.26358032226562,-207.20608520507807,9.997570037841797,-0.0263219885528087,1.4596738815307615,-0.9800000190734864,0.3499999940395355,-0.4200000166893005,123.21945190429688,-207.9654541015625,113.99041748046876,0.382865309715271,-7.619019508361816,0.9308412671089172,156.66000366210938,-67.97000122070312,220.7100067138672,-3.450000047683716,3.900000095367432,14.100000381469728,9.344305992126465,2.500588893890381,-0.727444052696228,-16.799999237060547,-2.940000057220459,-2.5899999141693115,61.6694221496582,-130.16241455078125,113.61526489257812,9.672134399414062,-0.0574297942221164,0.2512553632259369,12.8100004196167,-5.460000038146973,0.3499999940395355,117.78182983398438,-4.599926471710205,52.22694778442383,9.569239616394045,-0.7920525670051575,-1.148595929145813,0.2100000083446502,0.0,-1.1200000047683716,54.64360046386719,-50.7379264831543,-192.30276489257807,9.66256332397461,-0.181861013174057,-1.4501023292541504,2.6600000858306885,-0.5600000023841858,-2.6600000858306885,21.98838806152344,-121.53742218017578,51.20486831665039,9.7391357421875,-1.3854937553405762,-0.7705163955688477,4.340000152587891,-3.150000095367432,-1.6100000143051147,67.0605697631836,15.538312911987305,79.68778991699219,9.607525825500488,0.509689450263977,-1.2419192790985107,2.0299999713897705,-3.7100000381469727,-0.8400000333786011,85.44280242919922,-27.41674041748047,136.15530395507812
47,0.903846153846154,9.614705085754396,-2.91695499420166,1.5194966793060305,10.640000343322754,-9.449999809265137,-7.0,165.8253936767578,-227.0357360839844,165.27734375,6.405815124511719,-0.0071787242777645,6.90114688873291,223.44000244140625,119.0,52.92000198364258,140.62149047851562,-110.13009643554688,-208.03309631347656,10.081321716308594,0.0358936227858066,1.6080342531204224,0.4200000166893005,0.0,0.7699999809265137,123.79065704345705,-209.1219024658203,114.06195831298828,0.461831271648407,-8.435001373291016,0.4211518168449402,194.25,-98.84000396728516,180.9499969482422,-3.6000001430511475,4.050000190734863,11.850000381469728,9.468737602233888,2.3282995223999023,-0.7561589479446411,-11.480000495910645,-2.0999999046325684,-3.7799999713897705,61.47758483886719,-129.84423828125,115.21499633789062,9.77263641357422,0.0,0.1986113786697387,12.18000030517578,-3.920000076293945,-0.2100000083446502,114.15062713623048,-4.025072574615479,48.70834732055664,9.607525825500488,-0.7130866050720215,-1.112702250480652,1.1200000047683716,-0.6299999952316284,-1.190000057220459,58.25771713256836,-49.71646118164063,-188.5010681152344,9.597954750061035,-0.2392908036708831,-1.426173210144043,4.130000114440918,-0.5600000023841858,-2.799999952316284,20.240917205810547,-119.11555480957033,51.505706787109375,9.74870777130127,-1.3304568529129028,-0.6915504336357117,3.920000076293945,-3.220000028610229,-1.6100000143051147,66.93251037597656,14.471006393432615,77.39666748046875,9.588382720947266,0.5240468978881836,-1.2490980625152588,3.5,-3.289999961853028,-0.9100000262260436,83.43241119384766,-24.971439361572266,134.77981567382812
48,0.9230769230769232,9.508220672607422,-2.763808846473694,1.5039427280426023,9.380000114440918,-9.34499979019165,-7.735000133514404,165.2188491821289,-226.1271209716797,166.07331085205078,5.501295566558838,-0.8542681932449341,6.398636341094971,223.5800018310547,116.41000366210938,0.4200000166893005,140.06826782226562,-109.52942657470705,-209.8855133056641,10.124394416809082,-0.0526439771056175,1.7157150506973269,2.940000057220459,-0.2100000083446502,1.680000066757202,123.00659942626952,-209.53140258789065,113.01332092285156,0.0239290818572044,-6.958576679229736,-0.1986113786697387,259.70001220703125,-137.1999969482422,149.8000030517578,-2.700000047683716,8.40000057220459,5.400000095367432,9.545310020446776,2.61305570602417,-0.7489802241325378,-4.900000095367432,-0.9800000190734864,-4.269999980926514,58.67918014526367,-131.76968383789062,113.77093505859376,9.734350204467772,0.2201475501060485,0.2440766245126724,11.480000495910645,-2.0299999713897705,0.1400000005960464,115.1642074584961,-3.9258203506469727,49.2798957824707,9.578810691833496,-0.540797233581543,-1.100737690925598,2.870000123977661,-0.9800000190734864,-1.5399999618530271,52.90764617919922,-50.473121643066406,-194.7675323486328,9.624276161193848,-0.2464695274829864,-1.3208853006362915,5.53000020980835,-1.0499999523162842,-2.380000114440918,18.87273025512696,-121.5711669921875,48.41604232788086,9.75588607788086,-1.3017419576644895,-0.6724071502685547,5.110000133514404,-3.569999933242798,-1.680000066757202,67.675048828125,15.431328773498535,79.52452850341797,9.554882049560549,0.4331163763999939,-1.1844894886016846,4.550000190734863,-2.799999952316284,-1.1200000047683716,82.76655578613281,-24.59548759460449,134.570556640625
49,0.9423076923076924,9.40173625946045,-2.6106626987457275,1.4883887767791748,8.119999885559082,-9.239999771118164,-8.470000267028809,164.6123046875,-225.218505859375,166.86927795410156,4.012907028198242,-2.718343496322632,5.757337093353272,205.5200042724609,111.51000213623048,-25.40999984741211,139.1394805908203,-109.13003540039062,-211.7710876464844,9.976034164428713,-0.2033971846103668,1.7635732889175415,7.490000247955322,-0.1400000005960464,3.0799999237060547,122.63707733154295,-208.41128540039065,112.7938003540039,-1.4716384410858154,-2.6082699298858643,-0.9954497814178468,287.6300048828125,-170.94000244140625,125.02000427246094,-1.2000000476837158,10.800000190734863,2.1000001430511475,9.595561027526855,2.79491662979126,-0.679585874080658,-0.8400000333786011,0.3499999940395355,-3.640000104904175,60.66558837890625,-134.4998016357422,113.27366638183594,9.73195743560791,0.4690099954605102,0.3517574965953827,13.440000534057615,-1.190000057220459,0.8400000333786011,114.5685577392578,-3.814870595932007,50.00447845458984,9.55009651184082,-0.5623334050178528,-1.0959519147872925,3.7799999713897705,-1.190000057220459,-1.4700000286102295,57.78315353393555,-54.45855712890625,-192.7029571533203,9.676919937133787,-0.1746822893619537,-1.3208853006362915,6.159999847412109,-2.0299999713897705,-2.240000009536743,20.27423477172852,-122.86795043945312,48.59733581542969,9.746315002441406,-1.2706341743469238,-0.6604426503181458,6.579999923706055,-4.199999809265137,-1.75,67.4665756225586,18.10650062561035,78.73847198486328,9.621883392333984,0.3804723918437958,-1.1629533767700195,5.039999961853027,-2.7300000190734863,-1.399999976158142,83.68505096435547,-25.556604385375977,133.83328247070312
50,0.9615384615384616,9.526166915893556,-2.617841482162476,1.115095138549805,8.890000343322754,-7.909999847412109,-10.5,166.21295166015625,-224.6724395751953,168.77777099609375,2.8355960845947266,-2.3976938724517822,5.305077075958252,169.75,100.5199966430664,-37.2400016784668,136.52206420898438,-99.41593170166016,-212.2745513916016,9.760672569274902,-0.2033971846103668,1.7898952960968018,11.829999923706056,0.0,4.619999885559082,124.39910888671876,-210.55029296875,114.08505249023438,-2.361800193786621,0.8758043646812439,0.4067943692207336,255.3600006103516,-193.0599975585937,112.41999816894533,0.4500000178813934,12.90000057220459,-3.0,9.56684684753418,2.8355960845947266,-0.4977248907089233,2.1700000762939453,1.820000052452088,-2.380000114440918,60.45076751708984,-128.9059295654297,112.72467803955078,9.84203052520752,0.49054616689682,0.1890397369861602,17.5,-0.4200000166893005,1.3300000429153442,117.3887710571289,-3.4847571849823,51.305782318115234,9.507023811340332,-0.6149773597717285,-1.1964540481567385,4.059999942779541,-1.680000066757202,-0.8400000333786011,56.32949447631836,-49.413352966308594,-190.5372009277344,9.798958778381348,-0.1244312226772308,-1.263455510139465,5.949999809265137,-2.799999952316284,-2.309999942779541,22.59345054626465,-121.6463851928711,50.76094055175781,9.770243644714355,-1.2538838386535645,-0.708300769329071,6.440000057220459,-4.480000019073486,-1.5399999618530271,67.00743865966797,14.20699405670166,78.4708480834961,9.602740287780762,0.4474738240242004,-1.1629533767700195,5.320000171661377,-2.309999942779541,-1.680000066757202,85.57987213134766,-26.14652633666992,133.7160186767578
51,0.9807692307692308,9.11458683013916,-2.9049904346466064,0.9021263718605042,3.150000095367432,-5.670000076293945,-12.460000038146973,164.7707061767578,-226.3042907714844,166.95611572265625,2.053115129470825,-0.6771929860115051,4.503453254699707,108.43000030517578,82.31999969482422,-30.8700008392334,133.26171875,-98.64078521728516,-215.9003143310547,9.463951110839844,-0.0909305065870285,1.7659661769866943,13.230000495910645,-0.1400000005960464,5.460000038146973,122.38401794433594,-208.10598754882807,112.5692367553711,-2.3426570892333984,1.277812957763672,2.3713719844818115,204.5399932861328,-199.8500061035156,97.2300033569336,2.700000047683716,14.850000381469728,-9.600000381469728,9.664956092834473,2.818845748901367,-0.4857603311538696,6.019999980926514,3.7100000381469727,-0.7699999809265137,60.65716552734375,-128.94125366210938,112.71702575683594,10.054999351501465,0.4809745252132416,-0.2536482512950897,17.5,2.309999942779541,0.0,117.8126220703125,-6.47314977645874,51.19375991821289,9.516595840454102,-0.758551836013794,-1.1916682720184326,4.059999942779541,-2.5199999809265137,-0.0700000002980232,54.85131454467773,-49.45284652709961,-192.63710021972656,9.727170944213867,-0.0287148971110582,-1.1629533767700195,4.96999979019165,-3.220000028610229,-2.380000114440918,22.2692813873291,-122.11663818359376,51.10031509399414,9.761868476867676,-1.283795177936554,-0.7633376717567444,6.4049999713897705,-4.515000104904175,-1.5399999618530271,67.24489212036133,14.69837760925293,78.62645721435547,9.590775489807127,0.5742979645729065,-1.0552724599838257,5.110000133514404,-2.0999999046325684,-1.8899999856948853,84.37445068359375,-25.927600860595703,134.74420166015625
52,1.0,9.315590858459473,-2.818845748901367,0.7920525670051575,2.380000114440918,-6.510000228881836,-15.75,166.2369384765625,-224.3876037597656,170.6505126953125,1.485995888710022,-1.5194966793060305,4.5010600090026855,44.45000076293945,64.33000183105469,-7.490000247955322,134.6777801513672,-99.65472412109376,-214.1269378662109,9.380199432373049,0.0717872455716133,1.7587873935699463,11.130000114440918,0.0,5.320000171661377,122.05043029785156,-208.57823181152344,112.6279525756836,-1.70135760307312,2.79491662979126,3.821474313735962,181.08999633789065,-179.1300048828125,75.18000030517578,3.900000095367432,16.80000114440918,-13.950000762939451,9.475915908813477,2.8978116512298584,-0.4785816073417663,10.5,5.389999866485596,0.1400000005960464,60.41177368164063,-130.23426818847656,111.92871856689452,9.997570037841797,0.4714028835296631,-0.3517574965953827,13.720000267028809,4.480000019073486,-1.9600000381469729,115.10679626464844,-4.978259086608887,49.09371566772461,9.516595840454102,-0.7178724408149719,-1.1892752647399902,4.409999847412109,-3.7100000381469727,0.2100000083446502,54.71381759643555,-51.00293350219727,-191.3689117431641,9.696063995361328,0.0765730589628219,-1.1342384815216064,4.059999942779541,-3.7100000381469727,-2.380000114440918,21.28913116455078,-121.44828033447266,48.842193603515625,9.753493309020996,-1.3137065172195437,-0.8183745741844177,6.369999885559082,-4.550000190734863,-1.5399999618530271,67.48234558105469,15.1897611618042,78.78206634521484,9.559667587280272,0.5790837407112122,-1.098344802856445,4.269999980926514,-2.1700000762939453,-1.820000052452088,87.37322998046875,-25.3588924407959,136.36697387695312
53,1.0192307692307694,9.440022468566896,-3.232818841934204,1.541032791137695,2.5899999141693115,-8.399999618530273,-19.11000061035156,166.4887237548828,-225.5325164794922,167.36180114746094,1.4285660982131958,-3.6372203826904297,5.185431957244873,4.96999979019165,43.88999938964844,11.829999923706056,134.31898498535156,-97.21219635009766,-214.3924865722656,9.351485252380373,0.2129688262939453,1.7324655055999756,7.349999904632568,0.1400000005960464,3.990000009536743,122.89014434814452,-208.7165679931641,113.0183563232422,-1.6750357151031494,3.653970718383789,4.99160623550415,170.94000244140625,-128.10000610351562,45.220001220703125,6.750000476837158,19.200000762939453,-17.25,9.231839179992676,3.079672813415528,-0.4474738240242004,13.369999885559082,6.019999980926514,0.3499999940395355,61.51343536376953,-135.47579956054688,110.43144989013672,9.813316345214844,0.3756865561008453,-0.1531461179256439,9.029999732971191,4.059999942779541,-3.430000066757202,118.0143051147461,-6.509471893310547,51.045780181884766,9.602740287780762,-0.7059078812599182,-1.1868823766708374,5.389999866485596,-4.550000190734863,0.0700000002980232,55.09364318847656,-51.08053588867188,-192.3665008544922,9.74033260345459,0.1950220093131065,-1.1342384815216064,3.465000033378601,-3.815000057220459,-2.065000057220459,23.34322452545166,-122.5642433166504,51.15395736694336,9.710420608520508,-1.2706341743469238,-0.7609447836875916,6.019999980926514,-4.550000190734863,-1.5399999618530271,68.33576202392578,14.77451229095459,78.42237091064453,9.562060356140137,0.5623334050178528,-1.0672370195388794,3.640000104904175,-2.450000047683716,-1.6100000143051147,83.56902313232422,-24.46189308166504,135.00941467285156
54,1.0384615384615383,9.21748161315918,-2.928919553756714,1.8114314079284668,7.070000171661377,-8.1899995803833,-20.57999992370605,165.21351623535156,-224.7687225341797,168.62721252441406,1.2921704053878784,-3.8621537685394287,5.733407974243164,-17.71000099182129,24.5,25.549999237060547,133.31483459472656,-97.30946350097656,-214.68338012695312,9.47113037109375,0.0717872455716133,1.7898952960968018,4.690000057220459,-0.2800000011920929,1.399999976158142,120.56282043457033,-208.6197052001953,110.24740600585938,-1.6750357151031494,6.231132507324219,4.163660049438477,131.60000610351562,-67.19999694824219,15.190000534057615,6.450000286102295,20.55000114440918,-21.0,8.913582801818848,3.225640058517456,-0.3852581977844238,13.720000267028809,5.53000020980835,0.1400000005960464,61.78291702270508,-129.37796020507812,114.3143081665039,9.736742973327637,0.466617077589035,0.1100737750530242,5.53000020980835,1.6100000143051147,-3.009999990463257,117.11040496826172,-4.7847113609313965,49.5351676940918,9.710420608520508,-0.5671192407608032,-1.217990159988403,5.809999942779541,-5.25,-0.0700000002980232,58.24786758422852,-49.998313903808594,-189.95281982421875,9.784601211547852,0.3134709596633911,-1.1342384815216064,2.870000123977661,-3.920000076293945,-1.75,25.39731788635254,-123.68020629882812,53.46572113037109,9.751100540161133,-1.2514909505844116,-0.7441943883895874,6.159999847412109,-4.550000190734863,-1.5399999618530271,68.32206726074219,15.051410675048828,79.17247009277344,9.562060356140137,0.667621374130249,-1.079201579093933,2.799999952316284,-2.799999952316284,-1.2599999904632568,85.1238021850586,-27.125328063964844,133.96612548828125
55,1.0576923076923077,9.423272132873535,-2.2660839557647705,1.718108057975769,12.949999809265137,-5.389999866485596,-15.609999656677246,164.59268188476562,-221.7430114746093,169.0275421142578,1.541032791137695,-2.354621648788452,7.209832191467285,-56.06999969482422,19.46000099182129,47.459999084472656,133.0869598388672,-99.91893005371094,-214.5836639404297,9.578810691833496,-0.2177546322345733,1.777930736541748,4.199999809265137,-1.0499999523162842,-1.2599999904632568,123.5281753540039,-208.818603515625,113.5567398071289,-2.160795927047729,6.994470119476318,3.998549461364746,30.100000381469727,-4.96999979019165,-10.43000030517578,9.0,21.600000381469727,-20.850000381469727,8.743685722351074,3.2711052894592285,-0.4833674430847168,12.31999969482422,4.690000057220459,-0.1400000005960464,58.60557556152344,-130.1852569580078,112.37006378173828,9.595561027526855,0.521653950214386,0.2584340870380401,2.450000047683716,1.4700000286102295,-3.289999961853028,119.5793685913086,-8.611176490783691,52.62533950805664,9.758278846740724,-0.3661149442195892,-1.2849916219711304,5.039999961853027,-4.690000057220459,-0.1400000005960464,58.27141571044922,-49.99335861206055,-189.2511749267578,9.86117458343506,0.2560411691665649,-1.131845474243164,0.7699999809265137,-3.009999990463257,-1.190000057220459,19.893978118896484,-123.07022094726562,48.42384338378906,9.672134399414062,-1.3615647554397583,-0.7513731122016907,6.230000019073486,-4.760000228881836,-1.3300000429153442,66.67131805419922,15.613932609558104,80.40473175048828,9.578810691833496,0.6556568145751953,-1.05048668384552,1.75,-3.150000095367432,-0.9100000262260436,86.606689453125,-27.08484268188477,136.2063446044922
56,1.076923076923077,9.172017097473145,-1.7540016174316406,1.5697476863861084,8.399999618530273,-1.1200000047683716,-6.440000057220459,165.62673950195312,-224.5595092773437,169.78302001953125,1.5075321197509766,-1.873647093772888,8.114351272583008,-112.0,6.440000057220459,74.41000366210938,133.26377868652344,-101.28062438964844,-215.1066131591797,9.719992637634276,-0.4163660109043121,1.799466848373413,5.110000133514404,-1.680000066757202,-2.450000047683716,124.0634536743164,-208.3826904296875,113.3500518798828,-3.318963527679444,4.268948078155518,4.797780513763428,-78.68000030517578,63.27999877929688,-28.770000457763672,7.800000190734863,21.0,-21.150001525878903,8.76761531829834,3.433823108673096,-0.5599405169487,10.079999923706056,3.5,-0.2800000011920929,61.20820999145508,-131.42208862304688,112.55393981933594,9.688884735107422,0.5527617931365967,0.2943277060985565,0.2100000083446502,1.2599999904632568,-2.870000123977661,117.20887756347656,-5.043766021728516,51.31099319458008,9.717599868774414,-0.3134709596633911,-1.3615647554397583,3.849999904632568,-3.0799999237060547,0.0,54.741641998291016,-51.27685928344727,-191.69802856445312,9.82767391204834,-0.0023929080925881,-1.0768086910247805,0.0,-1.680000066757202,-0.7699999809265137,19.825511932373047,-121.20492553710938,48.33439254760742,9.684099197387695,-1.2610626220703125,-0.6843717098236084,6.510000228881836,-5.110000133514404,-1.2599999904632568,68.62222290039062,14.756032943725586,80.80033111572266,9.578810691833496,0.7370156645774841,-1.0768086910247805,1.0499999523162842,-3.5,-0.2100000083446502,86.64700317382812,-24.436080932617188,136.6756134033203
57,1.0961538461538465,9.516595840454102,-2.148831367492676,1.543425679206848,5.880000114440918,6.300000190734863,-1.75,167.14601135253906,-225.3507080078125,169.63258361816406,1.2060257196426392,-3.6635422706604,8.368000030517578,-116.97000122070312,-17.639999389648438,71.75,132.79611206054688,-104.14157104492188,-217.1526641845703,9.887495994567873,-0.3493645787239074,1.7444299459457395,7.980000019073486,-2.240000009536743,-2.450000047683716,122.91326141357422,-208.99148559570312,112.54891204833984,-4.972463130950928,0.9284483194351196,4.931783676147461,-146.86000061035156,119.9800033569336,-31.56999969482422,6.150000095367432,20.55000114440918,-18.150001525878903,8.918368339538574,3.414679765701294,-0.6532639265060425,6.510000228881836,2.380000114440918,0.0,60.010929107666016,-132.04080200195312,110.34949493408205,9.751100540161133,0.368507832288742,0.3110780417919159,0.2800000011920929,0.2800000011920929,-1.8899999856948853,117.2580795288086,-7.192897319793701,49.66802978515625,9.691277503967283,-0.509689450263977,-1.454888105392456,2.1700000762939453,-1.190000057220459,0.0,54.828948974609375,-53.13818359375,-191.04725646972656,9.79417324066162,-0.1914326548576355,-1.1653462648391724,1.1200000047683716,-0.6299999952316284,-0.6299999952316284,19.557430267333984,-121.94315338134766,49.18663024902344,9.798958778381348,-1.208418607711792,-0.679585874080658,6.300000190734863,-5.670000076293945,-0.8400000333786011,69.34680938720703,16.752933502197266,80.86908721923828,9.602740287780762,0.7202653288841248,-1.043307900428772,0.6299999952316284,-4.059999942779541,0.4900000095367431,83.79811096191406,-25.05201530456543,133.36123657226562
58,1.1153846153846154,9.38259220123291,-2.715950727462769,1.6487137079238892,2.5199999809265137,7.909999847412109,-1.2599999904632568,165.40753173828125,-223.2067413330078,169.04298400878906,1.737251341342926,-4.076318979263306,9.617097854614258,-95.375,-17.255000114440918,59.81500053405762,133.2031478881836,-103.13370132446288,-215.78514862060547,9.973641395568848,-0.1244312226772308,1.8162171840667725,11.899999618530272,-2.450000047683716,-1.5399999618530271,122.93341827392578,-207.6671142578125,112.7835464477539,-8.05452823638916,-2.297191858291626,4.151695728302002,-172.89999389648438,133.83999633789062,-10.56999969482422,5.100000381469727,18.900001525878903,-15.750000953674316,9.038013458251951,3.2208542823791504,-0.588655412197113,5.670000076293945,1.3300000429153442,-1.6100000143051147,61.049346923828125,-131.0969696044922,115.135986328125,9.741528511047363,0.0382865294814109,0.2823631465435028,0.699999988079071,-1.2599999904632568,-1.820000052452088,117.91626739501952,-5.970543384552002,50.44104766845703,9.614705085754396,-0.7418015003204346,-1.5003533363342283,-0.2100000083446502,0.2800000011920929,-0.0700000002980232,55.11719131469727,-51.07558059692383,-191.66485595703125,9.72238540649414,-0.2416837215423584,-1.2443121671676636,2.5899999141693115,-0.5600000023841858,-0.6299999952316284,20.34576988220215,-121.81253814697266,49.20450210571289,9.736742973327637,-1.2036327123641968,-0.7178724408149719,5.389999866485596,-6.090000152587891,-0.5600000023841858,67.90927124023438,15.12207317352295,79.18775939941406,9.581204414367676,0.5766908526420593,-1.103130578994751,1.2599999904632568,-4.340000152587891,0.9800000190734864,84.41741180419922,-20.63800430297852,134.56008911132812
59,1.1346153846153846,9.329948425292969,-3.0318145751953125,1.868861198425293,5.599999904632568,5.389999866485596,-1.680000066757202,164.51083374023438,-223.8409576416016,169.6374969482422,2.268476963043213,-4.489095687866211,10.866195678710938,-73.77999877929688,-16.8700008392334,47.880001068115234,133.6101837158203,-102.1258316040039,-214.41763305664065,9.935354232788086,0.2464695274829864,1.8114314079284668,15.399999618530272,-3.150000095367432,-0.1400000005960464,124.33064270019533,-208.6850128173828,113.99560546875,-10.248825073242188,-5.4342942237854,5.046643257141113,-166.8800048828125,94.43000030517578,24.21999931335449,2.25,16.05000114440918,-13.350000381469728,9.191160202026367,3.079672813415528,-0.5623334050178528,7.909999847412109,0.2800000011920929,-4.199999809265137,61.296836853027344,-131.96299743652344,112.87802124023438,9.633848190307615,-0.2105759084224701,0.3110780417919159,0.7699999809265137,-1.3300000429153442,-2.450000047683716,119.67369842529295,-3.590550422668457,52.81377029418945,9.55009651184082,-0.9308412671089172,-1.5123178958892822,-1.190000057220459,0.8400000333786011,-0.2800000011920929,56.80133438110352,-51.35129165649414,-190.74371337890625,9.734350204467772,-0.1363957673311233,-1.4501023292541504,2.6600000858306885,-1.0499999523162842,-0.699999988079071,20.825389862060547,-120.82877349853516,49.65605163574219,9.760672569274902,-1.275420069694519,-0.8494823575019836,3.990000009536743,-6.159999847412109,-0.4200000166893005,67.57393646240234,13.049552917480469,78.40206146240234,9.569239616394045,0.5001177787780762,-1.074415683746338,2.380000114440918,-4.409999847412109,1.2599999904632568,85.99484252929688,-24.337026596069336,135.7162322998047
60,1.153846153846154,9.538131713867188,-2.5340895652771,1.8880045413970947,10.850000381469728,1.820000052452088,-0.2100000083446502,166.78121948242188,-224.22959899902344,169.55340576171875,2.558018684387207,-2.2373690605163574,10.466580390930176,-19.600000381469727,-13.09000015258789,27.57999992370605,131.80531311035156,-100.75640869140624,-214.302978515625,10.031070709228516,0.600619912147522,1.928683876991272,16.940000534057617,-3.7799999713897705,1.2599999904632568,123.76021575927734,-211.00802612304688,111.20447540283205,-8.059314727783203,-1.3807079792022705,7.3534064292907715,-140.6300048828125,46.68999862670898,36.18999862670898,3.0,16.350000381469727,-10.65000057220459,9.35866355895996,3.0748867988586426,-0.6317277550697327,11.130000114440918,-0.6299999952316284,-6.650000095367432,60.38908386230469,-129.67947387695312,113.56925964355467,9.528559684753418,0.0933234170079231,0.4235447347164154,1.9600000381469729,-0.7699999809265137,-1.820000052452088,113.19567108154295,-6.271472930908203,46.77449035644531,9.521381378173828,-0.9882710576057434,-1.5506044626235962,-1.3300000429153442,0.4900000095367431,-0.4900000095367431,55.26792907714844,-50.56305694580078,-191.01426696777344,9.64341926574707,-0.1603248417377472,-1.4764243364334106,0.9800000190734864,-1.399999976158142,-0.7699999809265137,22.445669174194336,-123.75820922851562,49.40627670288086,9.746315002441406,-1.3472073078155518,-0.7848738431930542,2.799999952316284,-5.809999942779541,-0.3499999940395355,68.96009063720703,14.949383735656738,79.71085357666016,9.564454078674316,0.461831271648407,-1.1653462648391724,2.7300000190734863,-4.409999847412109,1.1200000047683716,84.37577819824219,-24.6071834564209,134.41751098632812
61,1.1730769230769231,9.751100540161133,-1.7324655055999756,1.4836030006408691,9.800000190734863,2.7300000190734863,1.6100000143051147,166.94728088378906,-226.91368103027344,169.0764923095703,4.163660049438477,-0.5288326740264893,9.968854904174805,2.450000047683716,-13.789999961853027,6.230000019073486,132.29981994628906,-103.24913024902344,-216.1500396728516,10.098072052001951,0.8638398051261902,1.8425391912460327,16.030000686645508,-3.990000009536743,1.4700000286102295,122.61866760253906,-208.1353759765625,113.40357208251952,-4.91264009475708,-2.435980319976806,6.228739738464356,-125.09000396728516,11.899999618530272,27.93000030517578,2.400000095367432,15.750000953674316,-8.100000381469727,9.413700103759766,3.141888380050659,-0.6317277550697327,13.230000495910645,-1.3300000429153442,-7.769999980926514,60.727272033691406,-133.72625732421875,112.42908477783205,9.698456764221191,0.4737958014011383,0.382865309715271,3.150000095367432,-1.3300000429153442,0.0700000002980232,115.40182495117188,-5.554501056671143,49.410152435302734,9.411307334899902,-0.8925547003746033,-1.5290682315826416,-1.3300000429153442,0.0,-0.4200000166893005,52.17878341674805,-52.19114685058594,-193.80552673339844,9.600347518920898,-0.2775773406028747,-1.5290682315826416,-0.2800000011920929,-1.4700000286102295,-0.6299999952316284,19.632354736328125,-122.20716857910156,50.26081466674805,9.758278846740724,-1.4022440910339355,-1.021771788597107,2.799999952316284,-5.389999866485596,-0.5600000023841858,67.77177429199219,13.57198429107666,80.45594787597656,9.55727481842041,0.461831271648407,-1.1749178171157837,2.309999942779541,-4.340000152587891,0.9100000262260436,86.51203155517578,-27.86533737182617,136.06861877441406
62,1.1923076923076923,9.562060356140137,-1.7731448411941528,1.3639576435089111,-0.8400000333786011,4.760000228881836,2.5899999141693115,165.1886444091797,-226.09410095214844,168.25225830078125,4.146909713745117,-2.268476963043213,10.655619621276855,18.479999542236328,-9.100000381469728,-22.68000030517578,131.57742309570312,-103.36587524414062,-214.20327758789065,10.11242961883545,0.5982270240783691,1.7875022888183594,13.09000015258789,-3.430000066757202,0.699999988079071,122.66533660888672,-208.40533447265625,113.63578033447266,-6.365135669708252,-5.45104455947876,6.647498607635498,-9.170000076293944,-32.83000183105469,3.0799999237060547,0.6000000238418579,14.40000057220459,-9.450000762939451,9.315590858459473,3.323749303817749,-0.7059078812599182,14.489999771118164,-1.6100000143051147,-7.070000171661377,62.074440002441406,-133.15476989746094,112.9419174194336,9.75588607788086,0.5168681740760803,0.2201475501060485,2.450000047683716,-2.240000009536743,2.0999999046325684,117.93378448486328,-7.286994457244873,51.32904815673828,9.373021125793455,-0.8829830884933472,-1.5793193578720093,-1.9600000381469729,-0.5600000023841858,-0.2100000083446502,55.35776901245117,-54.30355453491211,-192.2386779785156,9.693670272827148,-0.4067943692207336,-1.4788172245025637,-1.2599999904632568,-1.680000066757202,-0.6299999952316284,22.56737327575684,-119.7721710205078,51.93446731567383,9.719992637634276,-1.3615647554397583,-1.0887731313705444,2.799999952316284,-4.619999885559082,-0.8400000333786011,68.57205963134766,11.825414657592772,78.87931060791016,9.595561027526855,0.382865309715271,-1.1366313695907593,1.190000057220459,-4.269999980926514,0.4900000095367431,85.1272964477539,-23.92474937438965,135.65493774414062
63,1.2115384615384617,9.317984580993652,-1.9478272199630733,1.3639576435089111,-5.460000038146973,4.199999809265137,2.380000114440918,167.12718200683594,-225.3546600341797,169.07127380371094,2.591519355773926,-3.890868663787842,10.0885009765625,43.33000183105469,1.2599999904632568,-45.9900016784668,130.52267456054688,-106.67363739013672,-217.58628845214844,9.918603897094728,0.5025107264518738,1.7324655055999756,9.170000076293944,-1.680000066757202,0.0,124.49037170410156,-208.45037841796875,113.75575256347656,-7.56158971786499,-1.557783126831055,5.721443176269531,104.51000213623048,-81.55000305175781,-19.8799991607666,1.8000000715255735,12.750000953674316,-6.900000095367432,9.411307334899902,3.5750045776367188,-0.5742979645729065,15.399999618530272,-1.399999976158142,-5.460000038146973,59.15323257446289,-131.34666442871094,111.73995971679688,9.815709114074709,0.4857603311538696,-0.0526439771056175,0.6299999952316284,-1.5399999618530271,3.0799999237060547,117.66188049316406,-6.985668182373047,50.54317092895508,9.509416580200195,-0.9595561623573304,-1.4405306577682495,-1.6100000143051147,-0.6299999952316284,0.3499999940395355,57.69417953491211,-50.1583137512207,-189.1363677978516,9.760672569274902,-0.5288326740264893,-1.3783150911331177,-1.4700000286102295,-2.450000047683716,-0.9800000190734864,21.137500762939453,-123.0013427734375,49.689395904541016,9.77263641357422,-1.318492412567139,-0.9930568337440492,2.309999942779541,-3.7799999713897705,-0.8400000333786011,69.216552734375,13.324667930603027,80.40243530273438,9.631455421447754,0.3541503846645355,-1.1605603694915771,0.699999988079071,-4.059999942779541,-0.1400000005960464,85.11787414550781,-23.926733016967773,135.37428283691406
64,1.2307692307692308,9.231839179992676,-2.54366135597229,1.4405306577682495,-8.050000190734863,0.4200000166893005,1.190000057220459,167.49197387695312,-226.47579956054688,169.1504669189453,1.7372512817382812,-4.103837490081787,8.667113304138184,57.26000213623047,5.599999904632568,-50.04999923706055,133.02210998535156,-108.13319396972656,-215.4786071777344,9.717599868774414,0.4355092644691467,1.7444299459457395,5.599999904632568,-0.1400000005960464,-0.2100000083446502,124.1336669921875,-208.647689819336,114.2839126586914,-7.075829029083252,-0.1459673941135406,7.027971267700195,122.91999816894533,-106.33000183105467,-20.440000534057617,3.300000190734864,15.300000190734863,-9.15000057220459,9.353878021240234,3.826260089874268,-0.5240468978881836,14.980000495910645,0.0700000002980232,-3.640000104904175,61.865081787109375,-131.5201416015625,113.65364837646484,9.796566009521484,0.3924369215965271,-0.0909305065870285,0.7699999809265137,-0.4200000166893005,2.940000057220459,118.46906280517578,-6.851085186004639,51.12236404418945,9.523774147033691,-1.019378900527954,-1.1916682720184326,-0.4900000095367431,-1.1200000047683716,0.4200000166893005,55.88580322265625,-51.98947143554688,-190.7105255126953,9.664956092834473,-0.4570454359054565,-1.3424214124679563,-0.9800000190734864,-3.430000066757202,-1.4700000286102295,22.25044059753418,-122.12060546875,50.53899383544922,9.782208442687988,-1.2514909505844116,-0.9571632146835328,2.240000009536743,-3.009999990463257,-1.190000057220459,66.24735260009766,14.082322120666504,79.29496002197266,9.57402515411377,0.3732936680316925,-1.0911661386489868,0.8400000333786011,-3.849999904632568,-0.7699999809265137,84.49736785888672,-25.14115524291992,135.72390747070312
65,1.25,9.309608936309814,-2.7769699096679688,1.366350531578064,-8.785000324249268,-0.804999977350235,1.4350000619888306,166.82891845703125,-225.57907104492188,168.2624740600586,1.689393162727356,-4.005728244781494,7.834381103515625,49.630001068115234,0.4200000166893005,-37.65999984741211,130.95399475097656,-102.5001983642578,-216.98956298828125,9.743921279907228,0.4546525478363037,1.770751953125,3.569999933242798,0.6299999952316284,0.7699999809265137,122.62338256835938,-208.13438415527344,113.54390716552734,-6.82218074798584,0.2751844227313995,8.604897499084473,108.36000061035156,-91.6999969482422,-10.989999771118164,3.900000095367432,16.80000114440918,-12.600000381469728,9.30601978302002,3.9530842304229736,-0.5120823383331299,12.739999771118164,1.4700000286102295,-3.009999990463257,61.58341217041016,-127.46146392822266,116.477783203125,9.909032821655272,0.2871489822864532,-0.1005021408200264,1.8899999856948853,0.8400000333786011,2.5199999809265137,116.96052551269533,-4.737484455108643,51.22676467895508,9.523774147033691,-0.9308412671089172,-1.098344802856445,-0.2800000011920929,-2.5899999141693115,-0.0700000002980232,53.60426330566406,-53.20309448242188,-191.75149536132807,9.7391357421875,-0.1100737750530242,-1.2490980625152588,-0.4200000166893005,-4.340000152587891,-1.5399999618530271,20.89603614807129,-120.81390380859376,51.76100158691406,9.710420608520508,-1.416601538658142,-0.8542681932449341,2.7300000190734863,-2.380000114440918,-1.3300000429153442,65.48345184326172,14.997204780578612,78.48094940185547,9.605133056640623,0.3709007501602173,-1.0959519147872925,2.0299999713897705,-3.7100000381469727,-1.2599999904632568,85.52420806884766,-25.59867477416992,134.37425231933594
66,1.2692307692307694,9.387378692626951,-3.0102784633636475,1.2921704053878784,-9.520000457763672,-2.0299999713897705,1.680000066757202,166.16586303710938,-224.68234252929688,167.37448120117188,1.7085363864898682,-4.070336818695068,8.265104293823242,26.31999969482422,-8.260000228881836,-17.5,130.5270538330078,-102.43251037597656,-217.395248413086,9.64581298828125,0.4546525478363037,1.7731448411941528,3.849999904632568,0.699999988079071,1.9600000381469729,123.19458770751952,-209.29083251953125,113.6154556274414,-7.693199634552002,-0.0789659693837165,8.791543960571289,94.01000213623048,-56.77000045776367,-5.599999904632568,4.350000381469727,18.30000114440918,-15.600000381469728,9.093050956726074,3.8765110969543457,-0.5910483002662659,8.260000228881836,2.309999942779541,-2.7300000190734863,58.46689224243164,-128.05496215820312,111.34676361083984,9.942533493041992,0.2249333560466766,0.033500712364912,1.0499999523162842,0.5600000023841858,1.6100000143051147,116.11609649658205,-4.600125312805176,50.6960334777832,9.64581298828125,-0.6748000979423523,-1.2514909505844116,-0.4200000166893005,-3.3600001335144043,-0.6299999952316284,56.32050323486328,-49.13546371459961,-189.6467742919922,9.81092357635498,0.0765730589628219,-1.217990159988403,-0.4900000095367431,-4.619999885559082,-1.3300000429153442,20.4575138092041,-122.62836456298828,49.05913543701172,9.612311363220217,-1.4453164339065552,-0.7705163955688477,3.150000095367432,-2.240000009536743,-1.6100000143051147,69.01190185546875,14.960288047790527,81.25448608398438,9.602740287780762,0.5455830693244934,-1.074415683746338,2.7300000190734863,-3.849999904632568,-1.5399999618530271,86.47785186767578,-24.672691345214844,136.63479614257812
67,1.2884615384615383,9.267732620239258,-3.007885456085205,1.8856115341186523,-10.640000343322754,-1.2599999904632568,3.5,165.86952209472656,-225.426513671875,167.38473510742188,2.61305570602417,-4.192375183105469,9.167230606079102,3.289999961853028,-16.520000457763672,-4.340000152587891,133.87059020996094,-99.789306640625,-214.7061309814453,9.633848190307615,0.619763195514679,1.749215841293335,2.1700000762939453,0.2800000011920929,2.5199999809265137,122.56389617919922,-206.54698181152344,112.56402587890624,-6.800644874572754,-1.5194966793060305,6.080379486083984,100.37999725341795,-32.47999954223633,-1.0499999523162842,6.150000095367432,18.450000762939453,-16.350000381469727,9.01169204711914,3.6348273754119873,-0.6963362693786621,2.940000057220459,2.309999942779541,-2.309999942779541,62.68770980834961,-130.06216430664062,114.32714080810548,9.940139770507812,0.205790102481842,0.1986113786697387,-2.309999942779541,-0.0700000002980232,0.699999988079071,115.6823959350586,-1.8935884237289429,49.35629653930664,9.624276161193848,-0.540797233581543,-1.3256710767745972,-1.2599999904632568,-3.289999961853028,-0.9100000262260436,54.38286590576172,-48.83433151245117,-191.9635772705078,9.882710456848145,0.1507532149553299,-1.1509888172149658,-1.3300000429153442,-3.569999933242798,-1.190000057220459,21.033859252929688,-123.5039520263672,50.44210815429688,9.679313659667969,-1.4285660982131958,-0.7561589479446411,3.569999933242798,-2.450000047683716,-1.820000052452088,66.67045593261719,15.054186820983888,78.06253814697266,9.56684684753418,0.5623334050178528,-1.019378900527954,2.309999942779541,-3.920000076293945,-1.4700000286102295,86.86150360107422,-25.789844512939453,137.2753143310547
68,1.3076923076923077,9.53334617614746,-2.878668546676636,1.5458186864852903,-5.179999828338623,-1.4700000286102295,2.6600000858306885,164.84225463867188,-225.2488708496093,167.56329345703125,2.6369848251342773,-4.390986442565918,8.018634796142578,-13.09000015258789,-19.040000915527344,0.699999988079071,131.0380096435547,-98.52210235595705,-215.58399963378903,9.82767391204834,0.5910483002662659,1.7324655055999756,-3.220000028610229,-0.0700000002980232,2.0999999046325684,122.35015869140624,-209.15347290039065,113.084716796875,-6.01577091217041,6.503924369812012,5.5539398193359375,67.4800033569336,-4.409999847412109,9.380000114440918,5.850000381469727,17.400001525878906,-16.5,9.033227920532228,3.407501220703125,-0.7130866050720215,0.7699999809265137,1.75,-1.6100000143051147,62.24797821044922,-128.6770477294922,113.17376708984376,9.775029182434082,0.2871489822864532,0.2823631465435028,-5.110000133514404,-0.3499999940395355,0.2100000083446502,116.3002700805664,-3.319998025894165,49.66004943847656,9.648205280303957,-0.4785816222429275,-1.3496001362800598,-1.9600000381469729,-2.799999952316284,-0.945000022649765,54.129356384277344,-49.049312591552734,-191.43923950195312,9.875532150268556,0.0215361732989549,-1.1892752647399902,-1.820000052452088,-2.450000047683716,-0.9800000190734864,20.98126983642578,-120.03539276123048,51.61806106567383,9.734350204467772,-1.2562767267227173,-0.7896596789360046,3.7100000381469727,-2.6600000858306885,-2.0999999046325684,68.6204833984375,13.155744552612305,79.95592498779297,9.523774147033691,0.667621374130249,-1.081594467163086,0.9100000262260436,-4.199999809265137,-1.0499999523162842,82.09687042236328,-23.179981231689453,132.72317504882812
